trial	subj	age	gender	stimulustype	item	condition	word	position	rt	correct
0	2	19	M	Filler	47	4	The	1	146.0	NA
0	2	19	M	Filler	47	4	boys	2	533.0	NA
0	2	19	M	Filler	47	4	all	3	417.0	NA
0	2	19	M	Filler	47	4	admired	4	384.0	NA
0	2	19	M	Filler	47	4	the	5	383.0	NA
0	2	19	M	Filler	47	4	singer	6	434.0	NA
0	2	19	M	Filler	47	4	of	7	566.0	NA
0	2	19	M	Filler	47	4	the	8	484.0	NA
0	2	19	M	Filler	47	4	song	9	467.0	NA
0	2	19	M	Filler	47	4	with	10	448.0	NA
0	2	19	M	Filler	47	4	the	11	536.0	NA
0	2	19	M	Filler	47	4	long	12	434.0	NA
0	2	19	M	Filler	47	4	eyelashes.	13	1015.0	NA
0	2	19	M	Question	47	4	NA	NA	2334.0	1
1	2	19	M	Filler	127	7	While	1	612.0	NA
1	2	19	M	Filler	127	7	Linda	2	433.0	NA
1	2	19	M	Filler	127	7	wrote	3	433.0	NA
1	2	19	M	Filler	127	7	the	4	451.0	NA
1	2	19	M	Filler	127	7	letter	5	416.0	NA
1	2	19	M	Filler	127	7	arrived	6	451.0	NA
1	2	19	M	Filler	127	7	from	7	398.0	NA
1	2	19	M	Filler	127	7	Chicago.	8	469.0	NA
1	2	19	M	Question	127	7	NA	NA	3066.0	1
2	2	19	M	Filler	92	5	The	1	563.0	NA
2	2	19	M	Filler	92	5	personal	2	434.0	NA
2	2	19	M	Filler	92	5	trainer	3	383.0	NA
2	2	19	M	Filler	92	5	was	4	384.0	NA
2	2	19	M	Filler	92	5	popular	5	466.0	NA
2	2	19	M	Filler	92	5	among	6	434.0	NA
2	2	19	M	Filler	92	5	athletes	7	449.0	NA
2	2	19	M	Filler	92	5	after	8	383.0	NA
2	2	19	M	Filler	92	5	he	9	400.0	NA
2	2	19	M	Filler	92	5	helped	10	351.0	NA
2	2	19	M	Filler	92	5	the	11	417.0	NA
2	2	19	M	Filler	92	5	bodybuilder	12	850.0	NA
2	2	19	M	Filler	92	5	win	13	517.0	NA
2	2	19	M	Filler	92	5	the	14	401.0	NA
2	2	19	M	Filler	92	5	competition.	15	499.0	NA
2	2	19	M	Question	92	5	NA	NA	2034.0	1
3	2	19	M	Filler	108	5	The	1	9365.0	NA
3	2	19	M	Filler	108	5	museum	2	1550.0	NA
3	2	19	M	Filler	108	5	wing	3	1517.0	NA
3	2	19	M	Filler	108	5	which	4	718.0	NA
3	2	19	M	Filler	108	5	housed	5	1034.0	NA
3	2	19	M	Filler	108	5	all	6	849.0	NA
3	2	19	M	Filler	108	5	the	7	416.0	NA
3	2	19	M	Filler	108	5	Picasso	8	467.0	NA
3	2	19	M	Filler	108	5	paintings	9	566.0	NA
3	2	19	M	Filler	108	5	was	10	1186.0	NA
3	2	19	M	Filler	108	5	very	11	516.0	NA
3	2	19	M	Filler	108	5	crowded.	12	467.0	NA
3	2	19	M	Question	108	5	NA	NA	2784.0	1
4	2	19	M	Filler	136	7	While	1	395.0	NA
4	2	19	M	Filler	136	7	Mark	2	384.0	NA
4	2	19	M	Filler	136	7	and	3	333.0	NA
4	2	19	M	Filler	136	7	Jenny	4	317.0	NA
4	2	19	M	Filler	136	7	were	5	350.0	NA
4	2	19	M	Filler	136	7	cuddling	6	332.0	NA
4	2	19	M	Filler	136	7	the	7	350.0	NA
4	2	19	M	Filler	136	7	older	8	418.0	NA
4	2	19	M	Filler	136	7	dogs	9	401.0	NA
4	2	19	M	Filler	136	7	the	10	632.0	NA
4	2	19	M	Filler	136	7	puppies	11	601.0	NA
4	2	19	M	Filler	136	7	nipped	12	634.0	NA
4	2	19	M	Filler	136	7	at	13	699.0	NA
4	2	19	M	Filler	136	7	their	14	735.0	NA
4	2	19	M	Filler	136	7	feet.	15	1234.0	NA
4	2	19	M	Question	136	7	NA	NA	2333.0	1
5	2	19	M	Filler	93	5	The	1	145.0	NA
5	2	19	M	Filler	93	5	new	2	566.0	NA
5	2	19	M	Filler	93	5	book	3	368.0	NA
5	2	19	M	Filler	93	5	replaced	4	417.0	NA
5	2	19	M	Filler	93	5	the	5	399.0	NA
5	2	19	M	Filler	93	5	work	6	368.0	NA
5	2	19	M	Filler	93	5	of	7	367.0	NA
5	2	19	M	Filler	93	5	the	8	432.0	NA
5	2	19	M	Filler	93	5	leaders	9	468.0	NA
5	2	19	M	Filler	93	5	in	10	449.0	NA
5	2	19	M	Filler	93	5	the	11	600.0	NA
5	2	19	M	Filler	93	5	field	12	501.0	NA
5	2	19	M	Filler	93	5	of	13	468.0	NA
5	2	19	M	Filler	93	5	physical	14	532.0	NA
5	2	19	M	Filler	93	5	chemistry.	15	533.0	NA
5	2	19	M	Question	93	5	NA	NA	1750.0	1
6	2	19	M	swets	33	1	The	1	613.0	NA
6	2	19	M	swets	33	1	butler	2	498.0	NA
6	2	19	M	swets	33	1	of	3	402.0	NA
6	2	19	M	swets	33	1	the	4	367.0	NA
6	2	19	M	swets	33	1	actor	5	381.0	NA
6	2	19	M	swets	33	1	who	6	417.0	NA
6	2	19	M	swets	33	1	did	7	400.0	NA
6	2	19	M	swets	33	1	not	8	383.0	NA
6	2	19	M	swets	33	1	like	9	452.0	NA
6	2	19	M	swets	33	1	himself	10	384.0	NA
6	2	19	M	swets	33	1	very	11	417.0	NA
6	2	19	M	swets	33	1	much	12	449.0	NA
6	2	19	M	swets	33	1	caught	13	418.0	NA
6	2	19	M	swets	33	1	the	14	399.0	NA
6	2	19	M	swets	33	1	armed	15	468.0	NA
6	2	19	M	swets	33	1	robber.	16	382.0	NA
6	2	19	M	Question	33	1	NA	NA	3100.0	0
7	2	19	M	Filler	98	5	The	1	946.0	NA
7	2	19	M	Filler	98	5	husband	2	2384.0	NA
7	2	19	M	Filler	98	5	of	3	500.0	NA
7	2	19	M	Filler	98	5	the	4	400.0	NA
7	2	19	M	Filler	98	5	bestselling	5	466.0	NA
7	2	19	M	Filler	98	5	novelist	6	400.0	NA
7	2	19	M	Filler	98	5	was	7	384.0	NA
7	2	19	M	Filler	98	5	into	8	484.0	NA
7	2	19	M	Filler	98	5	collecting	9	483.0	NA
7	2	19	M	Filler	98	5	antiques.	10	466.0	NA
7	2	19	M	Question	98	5	NA	NA	2200.0	1
8	2	19	M	Filler	78	5	The	1	61.0	NA
8	2	19	M	Filler	78	5	customer	2	750.0	NA
8	2	19	M	Filler	78	5	complimented	3	583.0	NA
8	2	19	M	Filler	78	5	the	4	1051.0	NA
8	2	19	M	Filler	78	5	store	5	1051.0	NA
8	2	19	M	Filler	78	5	keeper	6	517.0	NA
8	2	19	M	Filler	78	5	with	7	417.0	NA
8	2	19	M	Filler	78	5	the	8	466.0	NA
8	2	19	M	Filler	78	5	new	9	385.0	NA
8	2	19	M	Filler	78	5	stock.	10	1515.0	NA
8	2	19	M	Question	78	5	NA	NA	1399.0	1
9	2	19	M	Filler	84	5	While	1	195.0	NA
9	2	19	M	Filler	84	5	talking	2	533.0	NA
9	2	19	M	Filler	84	5	to	3	417.0	NA
9	2	19	M	Filler	84	5	his	4	333.0	NA
9	2	19	M	Filler	84	5	sister	5	351.0	NA
9	2	19	M	Filler	84	5	the	6	350.0	NA
9	2	19	M	Filler	84	5	bishop	7	399.0	NA
9	2	19	M	Filler	84	5	with	8	368.0	NA
9	2	19	M	Filler	84	5	the	9	400.0	NA
9	2	19	M	Filler	84	5	funny	10	533.0	NA
9	2	19	M	Filler	84	5	eyebrows	11	452.0	NA
9	2	19	M	Filler	84	5	advocated	12	482.0	NA
9	2	19	M	Filler	84	5	strange	13	450.0	NA
9	2	19	M	Filler	84	5	beliefs.	14	435.0	NA
9	2	19	M	Question	84	5	NA	NA	5083.0	1
10	2	19	M	swets	3	1	The	1	2480.0	NA
10	2	19	M	swets	3	1	partner	2	733.0	NA
10	2	19	M	swets	3	1	of	3	616.0	NA
10	2	19	M	swets	3	1	the	4	469.0	NA
10	2	19	M	swets	3	1	salesman	5	466.0	NA
10	2	19	M	swets	3	1	who	6	466.0	NA
10	2	19	M	swets	3	1	amused	7	618.0	NA
10	2	19	M	swets	3	1	himself	8	417.0	NA
10	2	19	M	swets	3	1	quite	9	499.0	NA
10	2	19	M	swets	3	1	a	10	517.0	NA
10	2	19	M	swets	3	1	bit	11	450.0	NA
10	2	19	M	swets	3	1	was	12	433.0	NA
10	2	19	M	swets	3	1	writing	13	468.0	NA
10	2	19	M	swets	3	1	a	14	468.0	NA
10	2	19	M	swets	3	1	letter	15	450.0	NA
10	2	19	M	swets	3	1	to	16	466.0	NA
10	2	19	M	swets	3	1	the	17	483.0	NA
10	2	19	M	swets	3	1	editor.	18	1235.0	NA
10	2	19	M	Question	3	1	NA	NA	2532.0	1
11	2	19	M	Filler	94	5	After	1	29.0	NA
11	2	19	M	Filler	94	5	months	2	1449.0	NA
11	2	19	M	Filler	94	5	of	3	917.0	NA
11	2	19	M	Filler	94	5	preparation	4	700.0	NA
11	2	19	M	Filler	94	5	the	5	567.0	NA
11	2	19	M	Filler	94	5	ballerina	6	350.0	NA
11	2	19	M	Filler	94	5	was	7	400.0	NA
11	2	19	M	Filler	94	5	getting	8	384.0	NA
11	2	19	M	Filler	94	5	ready	9	318.0	NA
11	2	19	M	Filler	94	5	for	10	332.0	NA
11	2	19	M	Filler	94	5	opening	11	299.0	NA
11	2	19	M	Filler	94	5	night.	12	302.0	NA
11	2	19	M	Question	94	5	NA	NA	1699.0	1
12	2	19	M	swets	14	3	The	1	677.0	NA
12	2	19	M	swets	14	3	father	2	467.0	NA
12	2	19	M	swets	14	3	of	3	318.0	NA
12	2	19	M	swets	14	3	the	4	316.0	NA
12	2	19	M	swets	14	3	nurse	5	252.0	NA
12	2	19	M	swets	14	3	who	6	349.0	NA
12	2	19	M	swets	14	3	injured	7	333.0	NA
12	2	19	M	swets	14	3	himself	8	333.0	NA
12	2	19	M	swets	14	3	last	9	335.0	NA
12	2	19	M	swets	14	3	summer	10	317.0	NA
12	2	19	M	swets	14	3	had	11	333.0	NA
12	2	19	M	swets	14	3	lived	12	383.0	NA
12	2	19	M	swets	14	3	in	13	300.0	NA
12	2	19	M	swets	14	3	Wales.	14	349.0	NA
12	2	19	M	Question	14	3	NA	NA	1702.0	1
13	2	19	M	Filler	91	5	The	1	160.0	NA
13	2	19	M	Filler	91	5	workman	2	517.0	NA
13	2	19	M	Filler	91	5	dropped	3	617.0	NA
13	2	19	M	Filler	91	5	the	4	468.0	NA
13	2	19	M	Filler	91	5	assistant	5	433.0	NA
13	2	19	M	Filler	91	5	who	6	568.0	NA
13	2	19	M	Filler	91	5	complained	7	1450.0	NA
13	2	19	M	Filler	91	5	bitterly	8	534.0	NA
13	2	19	M	Filler	91	5	onto	9	515.0	NA
13	2	19	M	Filler	91	5	a	10	435.0	NA
13	2	19	M	Filler	91	5	lower	11	582.0	NA
13	2	19	M	Filler	91	5	floor.	12	636.0	NA
13	2	19	M	Question	91	5	NA	NA	1598.0	1
14	2	19	M	Filler	128	7	While	1	411.0	NA
14	2	19	M	Filler	128	7	the	2	534.0	NA
14	2	19	M	Filler	128	7	man	3	2368.0	NA
14	2	19	M	Filler	128	7	was	4	433.0	NA
14	2	19	M	Filler	128	7	walking	5	517.0	NA
14	2	19	M	Filler	128	7	the	6	450.0	NA
14	2	19	M	Filler	128	7	poodle	7	450.0	NA
14	2	19	M	Filler	128	7	barked	8	517.0	NA
14	2	19	M	Filler	128	7	loudly.	9	435.0	NA
14	2	19	M	Question	128	7	NA	NA	1832.0	1
15	2	19	M	Filler	69	4	The	1	329.0	NA
15	2	19	M	Filler	69	4	tiny	2	399.0	NA
15	2	19	M	Filler	69	4	child	3	352.0	NA
15	2	19	M	Filler	69	4	rolled	4	400.0	NA
15	2	19	M	Filler	69	4	the	5	332.0	NA
15	2	19	M	Filler	69	4	piece	6	351.0	NA
15	2	19	M	Filler	69	4	of	7	350.0	NA
15	2	19	M	Filler	69	4	the	8	317.0	NA
15	2	19	M	Filler	69	4	toy	9	366.0	NA
15	2	19	M	Filler	69	4	into	10	400.0	NA
15	2	19	M	Filler	69	4	the	11	351.0	NA
15	2	19	M	Filler	69	4	next	12	383.0	NA
15	2	19	M	Filler	69	4	room	13	401.0	NA
15	2	19	M	Filler	69	4	after	14	400.0	NA
15	2	19	M	Filler	69	4	it	15	383.0	NA
15	2	19	M	Filler	69	4	broke	16	367.0	NA
15	2	19	M	Filler	69	4	off.	17	367.0	NA
15	2	19	M	Question	69	4	NA	NA	1333.0	1
16	2	19	M	Filler	48	4	The	1	328.0	NA
16	2	19	M	Filler	48	4	police	2	350.0	NA
16	2	19	M	Filler	48	4	arrested	3	349.0	NA
16	2	19	M	Filler	48	4	the	4	301.0	NA
16	2	19	M	Filler	48	4	sister	5	300.0	NA
16	2	19	M	Filler	48	4	of	6	334.0	NA
16	2	19	M	Filler	48	4	the	7	316.0	NA
16	2	19	M	Filler	48	4	handyman	8	351.0	NA
16	2	19	M	Filler	48	4	after	9	300.0	NA
16	2	19	M	Filler	48	4	she	10	333.0	NA
16	2	19	M	Filler	48	4	recently	11	383.0	NA
16	2	19	M	Filler	48	4	gave	12	317.0	NA
16	2	19	M	Filler	48	4	birth	13	352.0	NA
16	2	19	M	Filler	48	4	to	14	348.0	NA
16	2	19	M	Filler	48	4	twins.	15	367.0	NA
16	2	19	M	Question	48	4	NA	NA	2700.0	1
17	2	19	M	Filler	134	7	As	1	329.0	NA
17	2	19	M	Filler	134	7	Shawnie	2	466.0	NA
17	2	19	M	Filler	134	7	and	3	451.0	NA
17	2	19	M	Filler	134	7	Nick	4	434.0	NA
17	2	19	M	Filler	134	7	were	5	364.0	NA
17	2	19	M	Filler	134	7	embracing	6	368.0	NA
17	2	19	M	Filler	134	7	the	7	382.0	NA
17	2	19	M	Filler	134	7	doctor	8	401.0	NA
17	2	19	M	Filler	134	7	the	9	351.0	NA
17	2	19	M	Filler	134	7	visitor	10	417.0	NA
17	2	19	M	Filler	134	7	entered	11	334.0	NA
17	2	19	M	Filler	134	7	the	12	384.0	NA
17	2	19	M	Filler	134	7	room.	13	366.0	NA
17	2	19	M	Question	134	7	NA	NA	2265.0	1
18	2	19	M	Filler	45	4	The	1	460.0	NA
18	2	19	M	Filler	45	4	plumber	2	384.0	NA
18	2	19	M	Filler	45	4	repaired	3	401.0	NA
18	2	19	M	Filler	45	4	the	4	398.0	NA
18	2	19	M	Filler	45	4	sink	5	385.0	NA
18	2	19	M	Filler	45	4	of	6	366.0	NA
18	2	19	M	Filler	45	4	the	7	367.0	NA
18	2	19	M	Filler	45	4	tenant	8	416.0	NA
18	2	19	M	Filler	45	4	because	9	451.0	NA
18	2	19	M	Filler	45	4	he	10	368.0	NA
18	2	19	M	Filler	45	4	had	11	399.0	NA
18	2	19	M	Filler	45	4	just	12	383.0	NA
18	2	19	M	Filler	45	4	moved	13	400.0	NA
18	2	19	M	Filler	45	4	in.	14	351.0	NA
18	2	19	M	Question	45	4	NA	NA	1216.0	1
19	2	19	M	swets	34	2	The	1	461.0	NA
19	2	19	M	swets	34	2	waiter	2	383.0	NA
19	2	19	M	swets	34	2	of	3	401.0	NA
19	2	19	M	swets	34	2	the	4	382.0	NA
19	2	19	M	swets	34	2	woman	5	383.0	NA
19	2	19	M	swets	34	2	who	6	351.0	NA
19	2	19	M	swets	34	2	considered	7	349.0	NA
19	2	19	M	swets	34	2	herself	8	383.0	NA
19	2	19	M	swets	34	2	a	9	402.0	NA
19	2	19	M	swets	34	2	natural	10	417.0	NA
19	2	19	M	swets	34	2	beauty	11	400.0	NA
19	2	19	M	swets	34	2	spilled	12	400.0	NA
19	2	19	M	swets	34	2	the	13	432.0	NA
19	2	19	M	swets	34	2	drinks.	14	368.0	NA
19	2	19	M	Question	34	2	NA	NA	2100.0	1
20	2	19	M	Filler	42	4	After	1	29.0	NA
20	2	19	M	Filler	42	4	dinner	2	582.0	NA
20	2	19	M	Filler	42	4	the	3	367.0	NA
20	2	19	M	Filler	42	4	children	4	349.0	NA
20	2	19	M	Filler	42	4	gathered	5	333.0	NA
20	2	19	M	Filler	42	4	in	6	367.0	NA
20	2	19	M	Filler	42	4	a	7	350.0	NA
20	2	19	M	Filler	42	4	circle	8	351.0	NA
20	2	19	M	Filler	42	4	to	9	383.0	NA
20	2	19	M	Filler	42	4	listen	10	336.0	NA
20	2	19	M	Filler	42	4	to	11	300.0	NA
20	2	19	M	Filler	42	4	their	12	332.0	NA
20	2	19	M	Filler	42	4	grandmother's	13	400.0	NA
20	2	19	M	Filler	42	4	stories	14	383.0	NA
20	2	19	M	Filler	42	4	about	15	467.0	NA
20	2	19	M	Filler	42	4	the	16	351.0	NA
20	2	19	M	Filler	42	4	good	17	383.0	NA
20	2	19	M	Filler	42	4	old	18	366.0	NA
20	2	19	M	Filler	42	4	days.	19	384.0	NA
20	2	19	M	Question	42	4	NA	NA	1401.0	1
21	2	19	M	Filler	64	4	Because	1	1061.0	NA
21	2	19	M	Filler	64	4	a	2	400.0	NA
21	2	19	M	Filler	64	4	fire	3	334.0	NA
21	2	19	M	Filler	64	4	alarm	4	417.0	NA
21	2	19	M	Filler	64	4	interrupted	5	400.0	NA
21	2	19	M	Filler	64	4	the	6	367.0	NA
21	2	19	M	Filler	64	4	exam	7	334.0	NA
21	2	19	M	Filler	64	4	the	8	333.0	NA
21	2	19	M	Filler	64	4	scores	9	367.0	NA
21	2	19	M	Filler	64	4	were	10	366.0	NA
21	2	19	M	Filler	64	4	disqualified.	11	366.0	NA
21	2	19	M	Question	64	4	NA	NA	1419.0	1
22	2	19	M	Filler	100	5	There	1	261.0	NA
22	2	19	M	Filler	100	5	was	2	415.0	NA
22	2	19	M	Filler	100	5	a	3	319.0	NA
22	2	19	M	Filler	100	5	large	4	332.0	NA
22	2	19	M	Filler	100	5	sale	5	351.0	NA
22	2	19	M	Filler	100	5	on	6	349.0	NA
22	2	19	M	Filler	100	5	stationary	7	366.0	NA
22	2	19	M	Filler	100	5	and	8	451.0	NA
22	2	19	M	Filler	100	5	office	9	417.0	NA
22	2	19	M	Filler	100	5	supplies	10	434.0	NA
22	2	19	M	Filler	100	5	at	11	518.0	NA
22	2	19	M	Filler	100	5	the	12	449.0	NA
22	2	19	M	Filler	100	5	student	13	468.0	NA
22	2	19	M	Filler	100	5	bookstore.	14	1033.0	NA
22	2	19	M	Question	100	5	NA	NA	4469.0	1
23	2	19	M	Filler	67	4	The	1	461.0	NA
23	2	19	M	Filler	67	4	restaurant	2	434.0	NA
23	2	19	M	Filler	67	4	was	3	365.0	NA
23	2	19	M	Filler	67	4	famous	4	368.0	NA
23	2	19	M	Filler	67	4	for	5	399.0	NA
23	2	19	M	Filler	67	4	its	6	416.0	NA
23	2	19	M	Filler	67	4	French	7	367.0	NA
23	2	19	M	Filler	67	4	pastries	8	401.0	NA
23	2	19	M	Filler	67	4	and	9	367.0	NA
23	2	19	M	Filler	67	4	fine	10	467.0	NA
23	2	19	M	Filler	67	4	wines.	11	517.0	NA
23	2	19	M	Question	67	4	NA	NA	1634.0	1
24	2	19	M	swets	26	3	The	1	696.0	NA
24	2	19	M	swets	26	3	grand-niece	2	833.0	NA
24	2	19	M	swets	26	3	of	3	484.0	NA
24	2	19	M	swets	26	3	the	4	366.0	NA
24	2	19	M	swets	26	3	admiral	5	335.0	NA
24	2	19	M	swets	26	3	who	6	415.0	NA
24	2	19	M	swets	26	3	wrote	7	368.0	NA
24	2	19	M	swets	26	3	herself	8	366.0	NA
24	2	19	M	swets	26	3	a	9	367.0	NA
24	2	19	M	swets	26	3	note	10	401.0	NA
24	2	19	M	swets	26	3	admired	11	367.0	NA
24	2	19	M	swets	26	3	sailors	12	384.0	NA
24	2	19	M	swets	26	3	very	13	383.0	NA
24	2	19	M	swets	26	3	much.	14	467.0	NA
24	2	19	M	Question	26	3	NA	NA	2666.0	1
25	2	19	M	Filler	51	4	The	1	95.0	NA
25	2	19	M	Filler	51	4	students	2	600.0	NA
25	2	19	M	Filler	51	4	were	3	434.0	NA
25	2	19	M	Filler	51	4	in	4	417.0	NA
25	2	19	M	Filler	51	4	a	5	399.0	NA
25	2	19	M	Filler	51	4	frenzy	6	367.0	NA
25	2	19	M	Filler	51	4	because	7	434.0	NA
25	2	19	M	Filler	51	4	they	8	432.0	NA
25	2	19	M	Filler	51	4	wanted	9	352.0	NA
25	2	19	M	Filler	51	4	tickets	10	465.0	NA
25	2	19	M	Filler	51	4	for	11	418.0	NA
25	2	19	M	Filler	51	4	the	12	415.0	NA
25	2	19	M	Filler	51	4	game	13	401.0	NA
25	2	19	M	Filler	51	4	tonight.	14	450.0	NA
25	2	19	M	Question	51	4	NA	NA	1533.0	1
26	2	19	M	swets	16	2	The	1	312.0	NA
26	2	19	M	swets	16	2	widow	2	467.0	NA
26	2	19	M	swets	16	2	of	3	383.0	NA
26	2	19	M	swets	16	2	the	4	334.0	NA
26	2	19	M	swets	16	2	general	5	401.0	NA
26	2	19	M	swets	16	2	who	6	399.0	NA
26	2	19	M	swets	16	2	sacrificed	7	433.0	NA
26	2	19	M	swets	16	2	himself	8	385.0	NA
26	2	19	M	swets	16	2	for	9	449.0	NA
26	2	19	M	swets	16	2	the	10	434.0	NA
26	2	19	M	swets	16	2	cause	11	400.0	NA
26	2	19	M	swets	16	2	was	12	434.0	NA
26	2	19	M	swets	16	2	the	13	400.0	NA
26	2	19	M	swets	16	2	subject	14	467.0	NA
26	2	19	M	swets	16	2	of	15	417.0	NA
26	2	19	M	swets	16	2	the	16	450.0	NA
26	2	19	M	swets	16	2	biography.	17	498.0	NA
26	2	19	M	Question	16	2	NA	NA	1502.0	1
27	2	19	M	Filler	115	6	As	1	378.0	NA
27	2	19	M	Filler	115	6	Elaine	2	416.0	NA
27	2	19	M	Filler	115	6	and	3	317.0	NA
27	2	19	M	Filler	115	6	Robert	4	368.0	NA
27	2	19	M	Filler	115	6	fought	5	399.0	NA
27	2	19	M	Filler	115	6	the	6	334.0	NA
27	2	19	M	Filler	115	6	mosquitoes	7	399.0	NA
27	2	19	M	Filler	115	6	whined	8	417.0	NA
27	2	19	M	Filler	115	6	annoyingly.	9	401.0	NA
27	2	19	M	Question	115	6	NA	NA	3033.0	1
28	2	19	M	Filler	110	6	While	1	595.0	NA
28	2	19	M	Filler	110	6	the	2	399.0	NA
28	2	19	M	Filler	110	6	lawyer	3	434.0	NA
28	2	19	M	Filler	110	6	was	4	367.0	NA
28	2	19	M	Filler	110	6	reading	5	433.0	NA
28	2	19	M	Filler	110	6	the	6	385.0	NA
28	2	19	M	Filler	110	6	will	7	400.0	NA
28	2	19	M	Filler	110	6	the	8	515.0	NA
28	2	19	M	Filler	110	6	contract	9	434.0	NA
28	2	19	M	Filler	110	6	remained	10	416.0	NA
28	2	19	M	Filler	110	6	on	11	385.0	NA
28	2	19	M	Filler	110	6	the	12	366.0	NA
28	2	19	M	Filler	110	6	desk.	13	467.0	NA
28	2	19	M	Question	110	6	NA	NA	999.0	1
29	2	19	M	swets	28	2	The	1	245.0	NA
29	2	19	M	swets	28	2	nephew	2	451.0	NA
29	2	19	M	swets	28	2	of	3	382.0	NA
29	2	19	M	swets	28	2	the	4	318.0	NA
29	2	19	M	swets	28	2	baroness	5	433.0	NA
29	2	19	M	swets	28	2	who	6	399.0	NA
29	2	19	M	swets	28	2	admired	7	435.0	NA
29	2	19	M	swets	28	2	herself	8	433.0	NA
29	2	19	M	swets	28	2	an	9	433.0	NA
29	2	19	M	swets	28	2	inordinate	10	518.0	NA
29	2	19	M	swets	28	2	amount	11	466.0	NA
29	2	19	M	swets	28	2	enjoyed	12	434.0	NA
29	2	19	M	swets	28	2	all	13	415.0	NA
29	2	19	M	swets	28	2	the	14	401.0	NA
29	2	19	M	swets	28	2	attention.	15	383.0	NA
29	2	19	M	Question	28	2	NA	NA	3952.0	1
30	2	19	M	Filler	76	5	After	1	1230.0	NA
30	2	19	M	Filler	76	5	fifty	2	751.0	NA
30	2	19	M	Filler	76	5	years	3	666.0	NA
30	2	19	M	Filler	76	5	of	4	434.0	NA
30	2	19	M	Filler	76	5	marriage	5	416.0	NA
30	2	19	M	Filler	76	5	the	6	384.0	NA
30	2	19	M	Filler	76	5	old	7	449.0	NA
30	2	19	M	Filler	76	5	couple	8	484.0	NA
30	2	19	M	Filler	76	5	still	9	434.0	NA
30	2	19	M	Filler	76	5	felt	10	415.0	NA
30	2	19	M	Filler	76	5	the	11	435.0	NA
30	2	19	M	Filler	76	5	same	12	433.0	NA
30	2	19	M	Filler	76	5	about	13	434.0	NA
30	2	19	M	Filler	76	5	each	14	416.0	NA
30	2	19	M	Filler	76	5	other	15	334.0	NA
30	2	19	M	Filler	76	5	as	16	467.0	NA
30	2	19	M	Filler	76	5	they	17	432.0	NA
30	2	19	M	Filler	76	5	had	18	368.0	NA
30	2	19	M	Filler	76	5	on	19	351.0	NA
30	2	19	M	Filler	76	5	their	20	366.0	NA
30	2	19	M	Filler	76	5	wedding	21	333.0	NA
30	2	19	M	Filler	76	5	day.	22	435.0	NA
30	2	19	M	Question	76	5	NA	NA	1999.0	1
31	2	19	M	Filler	88	5	The	1	545.0	NA
31	2	19	M	Filler	88	5	woman's	2	500.0	NA
31	2	19	M	Filler	88	5	posture	3	367.0	NA
31	2	19	M	Filler	88	5	began	4	434.0	NA
31	2	19	M	Filler	88	5	to	5	367.0	NA
31	2	19	M	Filler	88	5	go	6	399.0	NA
31	2	19	M	Filler	88	5	bad	7	399.0	NA
31	2	19	M	Filler	88	5	because	8	400.0	NA
31	2	19	M	Filler	88	5	of	9	368.0	NA
31	2	19	M	Filler	88	5	her	10	402.0	NA
31	2	19	M	Filler	88	5	constant	11	399.0	NA
31	2	19	M	Filler	88	5	slumping.	12	399.0	NA
31	2	19	M	Question	88	5	NA	NA	2367.0	1
32	2	19	M	Filler	80	5	The	1	1179.0	NA
32	2	19	M	Filler	80	5	stepfather	2	448.0	NA
32	2	19	M	Filler	80	5	of	3	351.0	NA
32	2	19	M	Filler	80	5	the	4	399.0	NA
32	2	19	M	Filler	80	5	nun	5	417.0	NA
32	2	19	M	Filler	80	5	with	6	534.0	NA
32	2	19	M	Filler	80	5	a	7	468.0	NA
32	2	19	M	Filler	80	5	long	8	450.0	NA
32	2	19	M	Filler	80	5	white	9	400.0	NA
32	2	19	M	Filler	80	5	beard	10	499.0	NA
32	2	19	M	Filler	80	5	became	11	434.0	NA
32	2	19	M	Filler	80	5	very	12	451.0	NA
32	2	19	M	Filler	80	5	ill.	13	1117.0	NA
32	2	19	M	Question	80	5	NA	NA	2533.0	1
33	2	19	M	swets	21	1	The	1	994.0	NA
33	2	19	M	swets	21	1	son	2	2836.0	NA
33	2	19	M	swets	21	1	of	3	466.0	NA
33	2	19	M	swets	21	1	the	4	351.0	NA
33	2	19	M	swets	21	1	janitor	5	367.0	NA
33	2	19	M	swets	21	1	who	6	381.0	NA
33	2	19	M	swets	21	1	educated	7	369.0	NA
33	2	19	M	swets	21	1	himself	8	533.0	NA
33	2	19	M	swets	21	1	at	9	433.0	NA
33	2	19	M	swets	21	1	night	10	384.0	NA
33	2	19	M	swets	21	1	loved	11	399.0	NA
33	2	19	M	swets	21	1	going	12	401.0	NA
33	2	19	M	swets	21	1	to	13	417.0	NA
33	2	19	M	swets	21	1	the	14	417.0	NA
33	2	19	M	swets	21	1	theatre.	15	517.0	NA
33	2	19	M	Question	21	1	NA	NA	1499.0	1
34	2	19	M	Filler	143	7	The	1	110.0	NA
34	2	19	M	Filler	143	7	lawyer	2	434.0	NA
34	2	19	M	Filler	143	7	and	3	434.0	NA
34	2	19	M	Filler	143	7	defendant	4	400.0	NA
34	2	19	M	Filler	143	7	whispered	5	466.0	NA
34	2	19	M	Filler	143	7	furiously	6	400.0	NA
34	2	19	M	Filler	143	7	during	7	402.0	NA
34	2	19	M	Filler	143	7	the	8	432.0	NA
34	2	19	M	Filler	143	7	recess.	9	418.0	NA
34	2	19	M	Question	143	7	NA	NA	3700.0	1
35	2	19	M	swets	4	2	The	1	278.0	NA
35	2	19	M	swets	4	2	father	2	401.0	NA
35	2	19	M	swets	4	2	of	3	383.0	NA
35	2	19	M	swets	4	2	the	4	416.0	NA
35	2	19	M	swets	4	2	bride	5	367.0	NA
35	2	19	M	swets	4	2	who	6	383.0	NA
35	2	19	M	swets	4	2	embarrassed	7	501.0	NA
35	2	19	M	swets	4	2	herself	8	667.0	NA
35	2	19	M	swets	4	2	at	9	950.0	NA
35	2	19	M	swets	4	2	the	10	366.0	NA
35	2	19	M	swets	4	2	reception	11	366.0	NA
35	2	19	M	swets	4	2	was	12	417.0	NA
35	2	19	M	swets	4	2	complaining	13	1668.0	NA
35	2	19	M	swets	4	2	to	14	416.0	NA
35	2	19	M	swets	4	2	the	15	384.0	NA
35	2	19	M	swets	4	2	priest.	16	483.0	NA
35	2	19	M	Question	4	2	NA	NA	2400.0	1
36	2	19	M	Filler	132	7	While	1	96.0	NA
36	2	19	M	Filler	132	7	John	2	466.0	NA
36	2	19	M	Filler	132	7	and	3	416.0	NA
36	2	19	M	Filler	132	7	Mary	4	368.0	NA
36	2	19	M	Filler	132	7	kissed	5	434.0	NA
36	2	19	M	Filler	132	7	their	6	399.0	NA
36	2	19	M	Filler	132	7	daughter	7	367.0	NA
36	2	19	M	Filler	132	7	fell	8	384.0	NA
36	2	19	M	Filler	132	7	asleep.	9	382.0	NA
36	2	19	M	Question	132	7	NA	NA	2067.0	1
37	2	19	M	Filler	52	4	The	1	495.0	NA
37	2	19	M	Filler	52	4	students	2	366.0	NA
37	2	19	M	Filler	52	4	were	3	334.0	NA
37	2	19	M	Filler	52	4	bored	4	368.0	NA
37	2	19	M	Filler	52	4	by	5	316.0	NA
37	2	19	M	Filler	52	4	the	6	349.0	NA
37	2	19	M	Filler	52	4	teacher.	7	268.0	NA
37	2	19	M	Question	52	4	NA	NA	2350.0	1
38	2	19	M	Filler	123	6	The	1	79.0	NA
38	2	19	M	Filler	123	6	student	2	465.0	NA
38	2	19	M	Filler	123	6	and	3	352.0	NA
38	2	19	M	Filler	123	6	professor	4	350.0	NA
38	2	19	M	Filler	123	6	went	5	333.0	NA
38	2	19	M	Filler	123	6	for	6	334.0	NA
38	2	19	M	Filler	123	6	a	7	333.0	NA
38	2	19	M	Filler	123	6	walk	8	300.0	NA
38	2	19	M	Filler	123	6	last	9	383.0	NA
38	2	19	M	Filler	123	6	Tuesday.	10	334.0	NA
38	2	19	M	Question	123	6	NA	NA	2368.0	1
39	2	19	M	swets	2	3	The	1	528.0	NA
39	2	19	M	swets	2	3	sister	2	350.0	NA
39	2	19	M	swets	2	3	of	3	352.0	NA
39	2	19	M	swets	2	3	the	4	350.0	NA
39	2	19	M	swets	2	3	fireman	5	316.0	NA
39	2	19	M	swets	2	3	who	6	384.0	NA
39	2	19	M	swets	2	3	criticized	7	331.0	NA
39	2	19	M	swets	2	3	herself	8	401.0	NA
39	2	19	M	swets	2	3	far	9	350.0	NA
39	2	19	M	swets	2	3	too	10	318.0	NA
39	2	19	M	swets	2	3	often	11	398.0	NA
39	2	19	M	swets	2	3	was	12	368.0	NA
39	2	19	M	swets	2	3	painting	13	366.0	NA
39	2	19	M	swets	2	3	the	14	351.0	NA
39	2	19	M	swets	2	3	bedroom.	15	367.0	NA
39	2	19	M	Question	2	3	NA	NA	2833.0	1
40	2	19	M	Filler	40	4	The	1	162.0	NA
40	2	19	M	Filler	40	4	boy's	2	350.0	NA
40	2	19	M	Filler	40	4	mother	3	333.0	NA
40	2	19	M	Filler	40	4	was	4	284.0	NA
40	2	19	M	Filler	40	4	very	5	334.0	NA
40	2	19	M	Filler	40	4	happy	6	400.0	NA
40	2	19	M	Filler	40	4	to	7	383.0	NA
40	2	19	M	Filler	40	4	see	8	334.0	NA
40	2	19	M	Filler	40	4	good	9	349.0	NA
40	2	19	M	Filler	40	4	grades	10	333.0	NA
40	2	19	M	Filler	40	4	on	11	384.0	NA
40	2	19	M	Filler	40	4	his	12	485.0	NA
40	2	19	M	Filler	40	4	report	13	300.0	NA
40	2	19	M	Filler	40	4	card.	14	398.0	NA
40	2	19	M	Question	40	4	NA	NA	1135.0	1
41	2	19	M	Filler	41	4	While	1	163.0	NA
41	2	19	M	Filler	41	4	the	2	949.0	NA
41	2	19	M	Filler	41	4	babysitter	3	533.0	NA
41	2	19	M	Filler	41	4	watched	4	485.0	NA
41	2	19	M	Filler	41	4	soap	5	400.0	NA
41	2	19	M	Filler	41	4	operas	6	302.0	NA
41	2	19	M	Filler	41	4	the	7	299.0	NA
41	2	19	M	Filler	41	4	child	8	334.0	NA
41	2	19	M	Filler	41	4	poured	9	300.0	NA
41	2	19	M	Filler	41	4	honey	10	300.0	NA
41	2	19	M	Filler	41	4	all	11	333.0	NA
41	2	19	M	Filler	41	4	over	12	284.0	NA
41	2	19	M	Filler	41	4	the	13	316.0	NA
41	2	19	M	Filler	41	4	floor.	14	333.0	NA
41	2	19	M	Question	41	4	NA	NA	1434.0	1
42	2	19	M	Filler	65	4	Even	1	2360.0	NA
42	2	19	M	Filler	65	4	though	2	434.0	NA
42	2	19	M	Filler	65	4	the	3	367.0	NA
42	2	19	M	Filler	65	4	goalie	4	350.0	NA
42	2	19	M	Filler	65	4	had	5	335.0	NA
42	2	19	M	Filler	65	4	a	6	365.0	NA
42	2	19	M	Filler	65	4	bad	7	301.0	NA
42	2	19	M	Filler	65	4	cold	8	400.0	NA
42	2	19	M	Filler	65	4	the	9	349.0	NA
42	2	19	M	Filler	65	4	team	10	367.0	NA
42	2	19	M	Filler	65	4	was	11	352.0	NA
42	2	19	M	Filler	65	4	preparing	12	333.0	NA
42	2	19	M	Filler	65	4	for	13	366.0	NA
42	2	19	M	Filler	65	4	the	14	252.0	NA
42	2	19	M	Filler	65	4	tournament.	15	333.0	NA
42	2	19	M	Question	65	4	NA	NA	3032.0	1
43	2	19	M	Filler	70	4	The	1	327.0	NA
43	2	19	M	Filler	70	4	warden	2	368.0	NA
43	2	19	M	Filler	70	4	was	3	367.0	NA
43	2	19	M	Filler	70	4	dissatisfied	4	300.0	NA
43	2	19	M	Filler	70	4	with	5	383.0	NA
43	2	19	M	Filler	70	4	the	6	382.0	NA
43	2	19	M	Filler	70	4	decision	7	335.0	NA
43	2	19	M	Filler	70	4	of	8	382.0	NA
43	2	19	M	Filler	70	4	the	9	317.0	NA
43	2	19	M	Filler	70	4	parole	10	351.0	NA
43	2	19	M	Filler	70	4	committee	11	368.0	NA
43	2	19	M	Filler	70	4	to	12	382.0	NA
43	2	19	M	Filler	70	4	pardon	13	384.0	NA
43	2	19	M	Filler	70	4	the	14	366.0	NA
43	2	19	M	Filler	70	4	prisoner.	15	385.0	NA
43	2	19	M	Question	70	4	NA	NA	1198.0	1
44	2	19	M	Filler	120	6	Sarah	1	627.0	NA
44	2	19	M	Filler	120	6	won't	2	434.0	NA
44	2	19	M	Filler	120	6	reveal	3	334.0	NA
44	2	19	M	Filler	120	6	which	4	383.0	NA
44	2	19	M	Filler	120	6	race	5	433.0	NA
44	2	19	M	Filler	120	6	she	6	301.0	NA
44	2	19	M	Filler	120	6	won	7	400.0	NA
44	2	19	M	Filler	120	6	without	8	366.0	NA
44	2	19	M	Filler	120	6	entering	9	334.0	NA
44	2	19	M	Filler	120	6	the	10	251.0	NA
44	2	19	M	Filler	120	6	competition	11	432.0	NA
44	2	19	M	Filler	120	6	for	12	352.0	NA
44	2	19	M	Filler	120	6	officially.	13	2400.0	NA
44	2	19	M	Question	120	6	NA	NA	2002.0	1
45	2	19	M	Filler	61	4	The	1	179.0	NA
45	2	19	M	Filler	61	4	lemon	2	417.0	NA
45	2	19	M	Filler	61	4	squirted	3	333.0	NA
45	2	19	M	Filler	61	4	into	4	416.0	NA
45	2	19	M	Filler	61	4	the	5	516.0	NA
45	2	19	M	Filler	61	4	debutante's	6	301.0	NA
45	2	19	M	Filler	61	4	eye	7	484.0	NA
45	2	19	M	Filler	61	4	as	8	434.0	NA
45	2	19	M	Filler	61	4	she	9	383.0	NA
45	2	19	M	Filler	61	4	tried	10	350.0	NA
45	2	19	M	Filler	61	4	to	11	367.0	NA
45	2	19	M	Filler	61	4	impress	12	367.0	NA
45	2	19	M	Filler	61	4	her	13	400.0	NA
45	2	19	M	Filler	61	4	mother's	14	332.0	NA
45	2	19	M	Filler	61	4	society	15	335.0	NA
45	2	19	M	Filler	61	4	friends.	16	532.0	NA
45	2	19	M	Question	61	4	NA	NA	1968.0	1
46	2	19	M	swets	1	2	The	1	363.0	NA
46	2	19	M	swets	1	2	brother	2	432.0	NA
46	2	19	M	swets	1	2	of	3	417.0	NA
46	2	19	M	swets	1	2	the	4	417.0	NA
46	2	19	M	swets	1	2	actress	5	401.0	NA
46	2	19	M	swets	1	2	who	6	382.0	NA
46	2	19	M	swets	1	2	called	7	400.0	NA
46	2	19	M	swets	1	2	attention	8	601.0	NA
46	2	19	M	swets	1	2	to	9	550.0	NA
46	2	19	M	swets	1	2	herself	10	533.0	NA
46	2	19	M	swets	1	2	on	11	518.0	NA
46	2	19	M	swets	1	2	the	12	501.0	NA
46	2	19	M	swets	1	2	balcony	13	466.0	NA
46	2	19	M	swets	1	2	was	14	617.0	NA
46	2	19	M	swets	1	2	under	15	567.0	NA
46	2	19	M	swets	1	2	investigation.	16	1266.0	NA
46	2	19	M	Question	1	2	NA	NA	1717.0	1
47	2	19	M	Filler	135	7	While	1	96.0	NA
47	2	19	M	Filler	135	7	Donna	2	467.0	NA
47	2	19	M	Filler	135	7	and	3	266.0	NA
47	2	19	M	Filler	135	7	Scott	4	200.0	NA
47	2	19	M	Filler	135	7	met	5	249.0	NA
47	2	19	M	Filler	135	7	their	6	201.0	NA
47	2	19	M	Filler	135	7	agent	7	234.0	NA
47	2	19	M	Filler	135	7	some	8	183.0	NA
47	2	19	M	Filler	135	7	friends	9	233.0	NA
47	2	19	M	Filler	135	7	called	10	185.0	NA
47	2	19	M	Filler	135	7	and	11	249.0	NA
47	2	19	M	Filler	135	7	left	12	233.0	NA
47	2	19	M	Filler	135	7	a	13	234.0	NA
47	2	19	M	Filler	135	7	message.	14	167.0	NA
47	2	19	M	Question	135	7	NA	NA	1734.0	0
48	2	19	M	swets	29	3	The	1	178.0	NA
48	2	19	M	swets	29	3	daughter	2	334.0	NA
48	2	19	M	swets	29	3	of	3	234.0	NA
48	2	19	M	swets	29	3	the	4	316.0	NA
48	2	19	M	swets	29	3	colonel	5	167.0	NA
48	2	19	M	swets	29	3	who	6	367.0	NA
48	2	19	M	swets	29	3	enjoyed	7	233.0	NA
48	2	19	M	swets	29	3	herself	8	250.0	NA
48	2	19	M	swets	29	3	a	9	251.0	NA
48	2	19	M	swets	29	3	lot	10	283.0	NA
48	2	19	M	swets	29	3	was	11	333.0	NA
48	2	19	M	swets	29	3	out	12	300.0	NA
48	2	19	M	swets	29	3	on	13	250.0	NA
48	2	19	M	swets	29	3	the	14	217.0	NA
48	2	19	M	swets	29	3	balcony.	15	300.0	NA
48	2	19	M	Question	29	3	NA	NA	1367.0	1
49	2	19	M	Filler	140	7	The	1	578.0	NA
49	2	19	M	Filler	140	7	investigators	2	332.0	NA
49	2	19	M	Filler	140	7	asked	3	299.0	NA
49	2	19	M	Filler	140	7	which	4	318.0	NA
49	2	19	M	Filler	140	7	mansion	5	267.0	NA
49	2	19	M	Filler	140	7	the	6	235.0	NA
49	2	19	M	Filler	140	7	owner	7	249.0	NA
49	2	19	M	Filler	140	7	sold	8	282.0	NA
49	2	19	M	Filler	140	7	and	9	268.0	NA
49	2	19	M	Filler	140	7	didn't	10	234.0	NA
49	2	19	M	Filler	140	7	repair	11	349.0	NA
49	2	19	M	Filler	140	7	ten	12	249.0	NA
49	2	19	M	Filler	140	7	years	13	334.0	NA
49	2	19	M	Filler	140	7	ago.	14	334.0	NA
49	2	19	M	Question	140	7	NA	NA	2384.0	1
50	2	19	M	Filler	54	4	The	1	461.0	NA
50	2	19	M	Filler	54	4	video	2	333.0	NA
50	2	19	M	Filler	54	4	screen	3	334.0	NA
50	2	19	M	Filler	54	4	of	4	284.0	NA
50	2	19	M	Filler	54	4	the	5	332.0	NA
50	2	19	M	Filler	54	4	monitor	6	319.0	NA
50	2	19	M	Filler	54	4	made	7	332.0	NA
50	2	19	M	Filler	54	4	strange	8	301.0	NA
50	2	19	M	Filler	54	4	noises	9	317.0	NA
50	2	19	M	Filler	54	4	and	10	299.0	NA
50	2	19	M	Filler	54	4	started	11	268.0	NA
50	2	19	M	Filler	54	4	emitting	12	300.0	NA
50	2	19	M	Filler	54	4	strange	13	366.0	NA
50	2	19	M	Filler	54	4	flashes.	14	300.0	NA
50	2	19	M	Question	54	4	NA	NA	1834.0	1
51	2	19	M	swets	27	1	The	1	145.0	NA
51	2	19	M	swets	27	1	brother	2	466.0	NA
51	2	19	M	swets	27	1	of	3	349.0	NA
51	2	19	M	swets	27	1	the	4	318.0	NA
51	2	19	M	swets	27	1	butcher	5	300.0	NA
51	2	19	M	swets	27	1	who	6	333.0	NA
51	2	19	M	swets	27	1	invited	7	300.0	NA
51	2	19	M	swets	27	1	himself	8	302.0	NA
51	2	19	M	swets	27	1	to	9	282.0	NA
51	2	19	M	swets	27	1	the	10	316.0	NA
51	2	19	M	swets	27	1	party	11	285.0	NA
51	2	19	M	swets	27	1	enjoyed	12	299.0	NA
51	2	19	M	swets	27	1	it	13	333.0	NA
51	2	19	M	swets	27	1	quite	14	366.0	NA
51	2	19	M	swets	27	1	a	15	318.0	NA
51	2	19	M	swets	27	1	bit.	16	349.0	NA
51	2	19	M	Question	27	1	NA	NA	2185.0	1
52	2	19	M	Filler	137	7	When	1	662.0	NA
52	2	19	M	Filler	137	7	Leslie	2	267.0	NA
52	2	19	M	Filler	137	7	was	3	216.0	NA
52	2	19	M	Filler	137	7	sneezing	4	834.0	NA
52	2	19	M	Filler	137	7	her	5	299.0	NA
52	2	19	M	Filler	137	7	friends	6	268.0	NA
52	2	19	M	Filler	137	7	laughed	7	434.0	NA
52	2	19	M	Filler	137	7	at	8	316.0	NA
52	2	19	M	Filler	137	7	her.	9	350.0	NA
52	2	19	M	Question	137	7	NA	NA	1300.0	1
53	2	19	M	Filler	39	4	The	1	95.0	NA
53	2	19	M	Filler	39	4	overweight	2	1167.0	NA
53	2	19	M	Filler	39	4	aunt	3	601.0	NA
53	2	19	M	Filler	39	4	decided	4	433.0	NA
53	2	19	M	Filler	39	4	to	5	366.0	NA
53	2	19	M	Filler	39	4	make	6	467.0	NA
53	2	19	M	Filler	39	4	cookies	7	399.0	NA
53	2	19	M	Filler	39	4	and	8	402.0	NA
53	2	19	M	Filler	39	4	cupcakes	9	400.0	NA
53	2	19	M	Filler	39	4	for	10	401.0	NA
53	2	19	M	Filler	39	4	the	11	350.0	NA
53	2	19	M	Filler	39	4	dinner	12	383.0	NA
53	2	19	M	Filler	39	4	party.	13	400.0	NA
53	2	19	M	Question	39	4	NA	NA	1434.0	1
54	2	19	M	swets	5	3	The	1	178.0	NA
54	2	19	M	swets	5	3	aunt	2	399.0	NA
54	2	19	M	swets	5	3	of	3	384.0	NA
54	2	19	M	swets	5	3	the	4	284.0	NA
54	2	19	M	swets	5	3	bishop	5	333.0	NA
54	2	19	M	swets	5	3	who	6	334.0	NA
54	2	19	M	swets	5	3	injured	7	300.0	NA
54	2	19	M	swets	5	3	herself	8	284.0	NA
54	2	19	M	swets	5	3	last	9	267.0	NA
54	2	19	M	swets	5	3	summer	10	299.0	NA
54	2	19	M	swets	5	3	was	11	318.0	NA
54	2	19	M	swets	5	3	concerned	12	416.0	NA
54	2	19	M	swets	5	3	about	13	302.0	NA
54	2	19	M	swets	5	3	the	14	317.0	NA
54	2	19	M	swets	5	3	infection.	15	298.0	NA
54	2	19	M	Question	5	3	NA	NA	3334.0	1
55	2	19	M	Filler	77	5	Outside	1	362.0	NA
55	2	19	M	Filler	77	5	the	2	382.0	NA
55	2	19	M	Filler	77	5	courthouse	3	367.0	NA
55	2	19	M	Filler	77	5	the	4	317.0	NA
55	2	19	M	Filler	77	5	committee	5	367.0	NA
55	2	19	M	Filler	77	5	awarded	6	333.0	NA
55	2	19	M	Filler	77	5	a	7	367.0	NA
55	2	19	M	Filler	77	5	lifetime	8	401.0	NA
55	2	19	M	Filler	77	5	achievement	9	384.0	NA
55	2	19	M	Filler	77	5	prize	10	399.0	NA
55	2	19	M	Filler	77	5	to	11	401.0	NA
55	2	19	M	Filler	77	5	the	12	367.0	NA
55	2	19	M	Filler	77	5	creator	13	334.0	NA
55	2	19	M	Filler	77	5	of	14	366.0	NA
55	2	19	M	Filler	77	5	the	15	333.0	NA
55	2	19	M	Filler	77	5	sculpture.	16	366.0	NA
55	2	19	M	Question	77	5	NA	NA	2100.0	1
56	2	19	M	Filler	133	7	While	1	95.0	NA
56	2	19	M	Filler	133	7	the	2	349.0	NA
56	2	19	M	Filler	133	7	lawyers	3	332.0	NA
56	2	19	M	Filler	133	7	fought	4	335.0	NA
56	2	19	M	Filler	133	7	the	5	250.0	NA
56	2	19	M	Filler	133	7	ruling	6	334.0	NA
56	2	19	M	Filler	133	7	the	7	267.0	NA
56	2	19	M	Filler	133	7	judge	8	333.0	NA
56	2	19	M	Filler	133	7	announced	9	300.0	NA
56	2	19	M	Filler	133	7	the	10	318.0	NA
56	2	19	M	Filler	133	7	decision.	11	233.0	NA
56	2	19	M	Question	133	7	NA	NA	1999.0	1
57	2	19	M	Filler	142	7	The	1	379.0	NA
57	2	19	M	Filler	142	7	cats	2	383.0	NA
57	2	19	M	Filler	142	7	and	3	350.0	NA
57	2	19	M	Filler	142	7	dogs	4	366.0	NA
57	2	19	M	Filler	142	7	glared	5	401.0	NA
57	2	19	M	Filler	142	7	at	6	367.0	NA
57	2	19	M	Filler	142	7	each	7	299.0	NA
57	2	19	M	Filler	142	7	other	8	367.0	NA
57	2	19	M	Filler	142	7	warily.	9	566.0	NA
57	2	19	M	Question	142	7	NA	NA	3102.0	1
58	2	19	M	Filler	96	5	The	1	196.0	NA
58	2	19	M	Filler	96	5	evil	2	366.0	NA
58	2	19	M	Filler	96	5	man	3	368.0	NA
58	2	19	M	Filler	96	5	watched	4	300.0	NA
58	2	19	M	Filler	96	5	the	5	332.0	NA
58	2	19	M	Filler	96	5	doorway	6	300.0	NA
58	2	19	M	Filler	96	5	of	7	285.0	NA
58	2	19	M	Filler	96	5	the	8	333.0	NA
58	2	19	M	Filler	96	5	bar	9	333.0	NA
58	2	19	M	Filler	96	5	every	10	366.0	NA
58	2	19	M	Filler	96	5	Friday	11	333.0	NA
58	2	19	M	Filler	96	5	night.	12	369.0	NA
58	2	19	M	Question	96	5	NA	NA	1799.0	1
59	2	19	M	Filler	102	5	The	1	94.0	NA
59	2	19	M	Filler	102	5	old	2	567.0	NA
59	2	19	M	Filler	102	5	man	3	384.0	NA
59	2	19	M	Filler	102	5	appeared	4	367.0	NA
59	2	19	M	Filler	102	5	to	5	449.0	NA
59	2	19	M	Filler	102	5	be	6	350.0	NA
59	2	19	M	Filler	102	5	upset	7	402.0	NA
59	2	19	M	Filler	102	5	by	8	400.0	NA
59	2	19	M	Filler	102	5	the	9	351.0	NA
59	2	19	M	Filler	102	5	teenager's	10	366.0	NA
59	2	19	M	Filler	102	5	ignorant	11	400.0	NA
59	2	19	M	Filler	102	5	remark.	12	432.0	NA
59	2	19	M	Question	102	5	NA	NA	2752.0	1
60	2	19	M	swets	18	1	The	1	629.0	NA
60	2	19	M	swets	18	1	nephew	2	433.0	NA
60	2	19	M	swets	18	1	of	3	334.0	NA
60	2	19	M	swets	18	1	the	4	299.0	NA
60	2	19	M	swets	18	1	fisherman	5	334.0	NA
60	2	19	M	swets	18	1	who	6	318.0	NA
60	2	19	M	swets	18	1	drowned	7	499.0	NA
60	2	19	M	swets	18	1	himself	8	434.0	NA
60	2	19	M	swets	18	1	in	9	400.0	NA
60	2	19	M	swets	18	1	the	10	433.0	NA
60	2	19	M	swets	18	1	ocean	11	400.0	NA
60	2	19	M	swets	18	1	didn't	12	334.0	NA
60	2	19	M	swets	18	1	know	13	433.0	NA
60	2	19	M	swets	18	1	about	14	633.0	NA
60	2	19	M	swets	18	1	the	15	419.0	NA
60	2	19	M	swets	18	1	tricky	16	432.0	NA
60	2	19	M	swets	18	1	current.	17	401.0	NA
60	2	19	M	Question	18	1	NA	NA	1866.0	1
61	2	19	M	Filler	56	4	The	1	NA	NA
62	2	19	M	Filler	72	4	The	1	NA	NA
63	2	19	M	swets	8	3	The	1	1296.0	NA
63	2	19	M	swets	8	3	brother	2	731.0	NA
63	2	19	M	swets	8	3	of	3	501.0	NA
63	2	19	M	swets	8	3	the	4	583.0	NA
63	2	19	M	swets	8	3	seamstress	5	601.0	NA
63	2	19	M	swets	8	3	who	6	568.0	NA
63	2	19	M	swets	8	3	entertained	7	499.0	NA
63	2	19	M	swets	8	3	himself	8	532.0	NA
63	2	19	M	swets	8	3	most	9	635.0	NA
63	2	19	M	swets	8	3	evenings	10	767.0	NA
63	2	19	M	swets	8	3	was	11	1066.0	NA
63	2	19	M	swets	8	3	reading	12	467.0	NA
63	2	19	M	swets	8	3	a	13	434.0	NA
63	2	19	M	swets	8	3	book.	14	1468.0	NA
63	2	19	M	Question	8	3	NA	NA	2232.0	1
64	2	19	M	Filler	60	4	The	1	95.0	NA
64	2	19	M	Filler	60	4	newlyweds	2	1066.0	NA
64	2	19	M	Filler	60	4	were	3	384.0	NA
64	2	19	M	Filler	60	4	nervous	4	366.0	NA
64	2	19	M	Filler	60	4	about	5	334.0	NA
64	2	19	M	Filler	60	4	their	6	399.0	NA
64	2	19	M	Filler	60	4	new	7	350.0	NA
64	2	19	M	Filler	60	4	life	8	335.0	NA
64	2	19	M	Filler	60	4	together.	9	334.0	NA
64	2	19	M	Question	60	4	NA	NA	3567.0	1
65	2	19	M	Filler	37	4	The	1	562.0	NA
65	2	19	M	Filler	37	4	party	2	433.0	NA
65	2	19	M	Filler	37	4	attracted	3	401.0	NA
65	2	19	M	Filler	37	4	the	4	399.0	NA
65	2	19	M	Filler	37	4	fraternity	5	401.0	NA
65	2	19	M	Filler	37	4	members	6	434.0	NA
65	2	19	M	Filler	37	4	whose	7	432.0	NA
65	2	19	M	Filler	37	4	house	8	333.0	NA
65	2	19	M	Filler	37	4	had	9	335.0	NA
65	2	19	M	Filler	37	4	been	10	367.0	NA
65	2	19	M	Filler	37	4	seized	11	332.0	NA
65	2	19	M	Filler	37	4	by	12	385.0	NA
65	2	19	M	Filler	37	4	drug	13	432.0	NA
65	2	19	M	Filler	37	4	agents.	14	433.0	NA
65	2	19	M	Question	37	4	NA	NA	1935.0	1
66	2	19	M	Filler	101	5	The	1	496.0	NA
66	2	19	M	Filler	101	5	friendly	2	367.0	NA
66	2	19	M	Filler	101	5	woman	3	398.0	NA
66	2	19	M	Filler	101	5	was	4	335.0	NA
66	2	19	M	Filler	101	5	insulted	5	333.0	NA
66	2	19	M	Filler	101	5	by	6	316.0	NA
66	2	19	M	Filler	101	5	the	7	300.0	NA
66	2	19	M	Filler	101	5	rude	8	300.0	NA
66	2	19	M	Filler	101	5	stranger	9	367.0	NA
66	2	19	M	Filler	101	5	because	10	401.0	NA
66	2	19	M	Filler	101	5	he	11	366.0	NA
66	2	19	M	Filler	101	5	didn't	12	301.0	NA
66	2	19	M	Filler	101	5	smile	13	365.0	NA
66	2	19	M	Filler	101	5	at	14	285.0	NA
66	2	19	M	Filler	101	5	her.	15	434.0	NA
66	2	19	M	Question	101	5	NA	NA	1516.0	1
67	2	19	M	swets	17	3	The	1	596.0	NA
67	2	19	M	swets	17	3	bank	2	398.0	NA
67	2	19	M	swets	17	3	manager	3	301.0	NA
67	2	19	M	swets	17	3	of	4	333.0	NA
67	2	19	M	swets	17	3	the	5	300.0	NA
67	2	19	M	swets	17	3	heiress	6	367.0	NA
67	2	19	M	swets	17	3	who	7	434.0	NA
67	2	19	M	swets	17	3	bankrupted	8	565.0	NA
67	2	19	M	swets	17	3	himself	9	502.0	NA
67	2	19	M	swets	17	3	last	10	432.0	NA
67	2	19	M	swets	17	3	year	11	367.0	NA
67	2	19	M	swets	17	3	still	12	435.0	NA
67	2	19	M	swets	17	3	made	13	365.0	NA
67	2	19	M	swets	17	3	risky	14	368.0	NA
67	2	19	M	swets	17	3	investments.	15	333.0	NA
67	2	19	M	Question	17	3	NA	NA	3166.0	1
68	2	19	M	Filler	75	5	The	1	761.0	NA
68	2	19	M	Filler	75	5	musician	2	533.0	NA
68	2	19	M	Filler	75	5	shocked	3	534.0	NA
68	2	19	M	Filler	75	5	the	4	434.0	NA
68	2	19	M	Filler	75	5	audience	5	399.0	NA
68	2	19	M	Filler	75	5	because	6	435.0	NA
68	2	19	M	Filler	75	5	they	7	432.0	NA
68	2	19	M	Filler	75	5	did	8	419.0	NA
68	2	19	M	Filler	75	5	not	9	399.0	NA
68	2	19	M	Filler	75	5	realize	10	399.0	NA
68	2	19	M	Filler	75	5	what	11	368.0	NA
68	2	19	M	Filler	75	5	these	12	366.0	NA
68	2	19	M	Filler	75	5	shows	13	333.0	NA
68	2	19	M	Filler	75	5	were	14	352.0	NA
68	2	19	M	Filler	75	5	like.	15	400.0	NA
68	2	19	M	Question	75	5	NA	NA	2849.0	1
69	2	19	M	Filler	122	6	They	1	528.0	NA
69	2	19	M	Filler	122	6	don't	2	400.0	NA
69	2	19	M	Filler	122	6	know	3	399.0	NA
69	2	19	M	Filler	122	6	which	4	268.0	NA
69	2	19	M	Filler	122	6	family	5	332.0	NA
69	2	19	M	Filler	122	6	the	6	401.0	NA
69	2	19	M	Filler	122	6	hijackers	7	334.0	NA
69	2	19	M	Filler	122	6	held	8	331.0	NA
69	2	19	M	Filler	122	6	hostage	9	334.0	NA
69	2	19	M	Filler	122	6	but	10	334.0	NA
69	2	19	M	Filler	122	6	didn't	11	302.0	NA
69	2	19	M	Filler	122	6	hurt	12	332.0	NA
69	2	19	M	Filler	122	6	the	13	335.0	NA
69	2	19	M	Filler	122	6	children	14	366.0	NA
69	2	19	M	Filler	122	6	of	15	367.0	NA
69	2	19	M	Filler	122	6	too	16	334.0	NA
69	2	19	M	Filler	122	6	much.	17	365.0	NA
69	2	19	M	Question	122	6	NA	NA	1299.0	1
70	2	19	M	Filler	81	5	The	1	694.0	NA
70	2	19	M	Filler	81	5	stubborn	2	483.0	NA
70	2	19	M	Filler	81	5	old	3	433.0	NA
70	2	19	M	Filler	81	5	man	4	401.0	NA
70	2	19	M	Filler	81	5	criticized	5	433.0	NA
70	2	19	M	Filler	81	5	everything	6	334.0	NA
70	2	19	M	Filler	81	5	that	7	399.0	NA
70	2	19	M	Filler	81	5	the	8	402.0	NA
70	2	19	M	Filler	81	5	young	9	398.0	NA
70	2	19	M	Filler	81	5	student	10	402.0	NA
70	2	19	M	Filler	81	5	did.	11	383.0	NA
70	2	19	M	Question	81	5	NA	NA	1199.0	1
71	2	19	M	swets	35	3	The	1	463.0	NA
71	2	19	M	swets	35	3	landlady	2	433.0	NA
71	2	19	M	swets	35	3	of	3	399.0	NA
71	2	19	M	swets	35	3	the	4	367.0	NA
71	2	19	M	swets	35	3	businessman	5	300.0	NA
71	2	19	M	swets	35	3	who	6	400.0	NA
71	2	19	M	swets	35	3	had	7	384.0	NA
71	2	19	M	swets	35	3	locked	8	366.0	NA
71	2	19	M	swets	35	3	herself	9	366.0	NA
71	2	19	M	swets	35	3	in	10	368.0	NA
71	2	19	M	swets	35	3	the	11	367.0	NA
71	2	19	M	swets	35	3	office	12	367.0	NA
71	2	19	M	swets	35	3	received	13	367.0	NA
71	2	19	M	swets	35	3	a	14	366.0	NA
71	2	19	M	swets	35	3	phone	15	366.0	NA
71	2	19	M	swets	35	3	call.	16	334.0	NA
71	2	19	M	Question	35	3	NA	NA	4851.0	1
72	2	19	M	Filler	119	6	Everybody	1	461.0	NA
72	2	19	M	Filler	119	6	is	2	401.0	NA
72	2	19	M	Filler	119	6	wondering	3	367.0	NA
72	2	19	M	Filler	119	6	which	4	334.0	NA
72	2	19	M	Filler	119	6	software	5	365.0	NA
72	2	19	M	Filler	119	6	Gary	6	335.0	NA
72	2	19	M	Filler	119	6	installed	7	365.0	NA
72	2	19	M	Filler	119	6	without	8	367.0	NA
72	2	19	M	Filler	119	6	buying	9	400.0	NA
72	2	19	M	Filler	119	6	last	10	401.0	NA
72	2	19	M	Filler	119	6	June.	11	366.0	NA
72	2	19	M	Question	119	6	NA	NA	1368.0	1
73	2	19	M	Filler	107	5	The	1	628.0	NA
73	2	19	M	Filler	107	5	citizens	2	366.0	NA
73	2	19	M	Filler	107	5	were	3	351.0	NA
73	2	19	M	Filler	107	5	dissatisfied	4	366.0	NA
73	2	19	M	Filler	107	5	with	5	367.0	NA
73	2	19	M	Filler	107	5	the	6	334.0	NA
73	2	19	M	Filler	107	5	mayor	7	333.0	NA
73	2	19	M	Filler	107	5	of	8	367.0	NA
73	2	19	M	Filler	107	5	town	9	301.0	NA
73	2	19	M	Filler	107	5	because	10	432.0	NA
73	2	19	M	Filler	107	5	he	11	335.0	NA
73	2	19	M	Filler	107	5	had	12	383.0	NA
73	2	19	M	Filler	107	5	little	13	365.0	NA
73	2	19	M	Filler	107	5	experience.	14	336.0	NA
73	2	19	M	Question	107	5	NA	NA	1567.0	1
74	2	19	M	swets	15	1	The	1	428.0	NA
74	2	19	M	swets	15	1	sister	2	482.0	NA
74	2	19	M	swets	15	1	of	3	301.0	NA
74	2	19	M	swets	15	1	the	4	400.0	NA
74	2	19	M	swets	15	1	beautician	5	267.0	NA
74	2	19	M	swets	15	1	who	6	533.0	NA
74	2	19	M	swets	15	1	cut	7	467.0	NA
74	2	19	M	swets	15	1	herself	8	368.0	NA
74	2	19	M	swets	15	1	on	9	382.0	NA
74	2	19	M	swets	15	1	the	10	368.0	NA
74	2	19	M	swets	15	1	broken	11	367.0	NA
74	2	19	M	swets	15	1	glass	12	333.0	NA
74	2	19	M	swets	15	1	phoned	13	399.0	NA
74	2	19	M	swets	15	1	for	14	368.0	NA
74	2	19	M	swets	15	1	a	15	383.0	NA
74	2	19	M	swets	15	1	doctor.	16	534.0	NA
74	2	19	M	Question	15	1	NA	NA	2450.0	1
75	2	19	M	Filler	50	4	The	1	395.0	NA
75	2	19	M	Filler	50	4	new	2	333.0	NA
75	2	19	M	Filler	50	4	language	3	500.0	NA
75	2	19	M	Filler	50	4	requirement	4	417.0	NA
75	2	19	M	Filler	50	4	made	5	402.0	NA
75	2	19	M	Filler	50	4	all	6	399.0	NA
75	2	19	M	Filler	50	4	the	7	400.0	NA
75	2	19	M	Filler	50	4	students	8	366.0	NA
75	2	19	M	Filler	50	4	say	9	399.0	NA
75	2	19	M	Filler	50	4	bad	10	436.0	NA
75	2	19	M	Filler	50	4	things	11	333.0	NA
75	2	19	M	Filler	50	4	about	12	533.0	NA
75	2	19	M	Filler	50	4	the	13	468.0	NA
75	2	19	M	Filler	50	4	dean	14	399.0	NA
75	2	19	M	Filler	50	4	of	15	433.0	NA
75	2	19	M	Filler	50	4	the	16	402.0	NA
75	2	19	M	Filler	50	4	college.	17	366.0	NA
75	2	19	M	Question	50	4	NA	NA	1866.0	1
76	2	19	M	Filler	111	6	While	1	429.0	NA
76	2	19	M	Filler	111	6	the	2	400.0	NA
76	2	19	M	Filler	111	6	clown	3	382.0	NA
76	2	19	M	Filler	111	6	juggled	4	335.0	NA
76	2	19	M	Filler	111	6	the	5	301.0	NA
76	2	19	M	Filler	111	6	balls	6	365.0	NA
76	2	19	M	Filler	111	6	fell	7	301.0	NA
76	2	19	M	Filler	111	6	to	8	366.0	NA
76	2	19	M	Filler	111	6	the	9	301.0	NA
76	2	19	M	Filler	111	6	ground.	10	335.0	NA
76	2	19	M	Question	111	6	NA	NA	933.0	0
77	2	19	M	Filler	89	5	Jim	1	28.0	NA
77	2	19	M	Filler	89	5	watered	2	667.0	NA
77	2	19	M	Filler	89	5	the	3	334.0	NA
77	2	19	M	Filler	89	5	tropical	4	332.0	NA
77	2	19	M	Filler	89	5	plants	5	335.0	NA
77	2	19	M	Filler	89	5	of	6	334.0	NA
77	2	19	M	Filler	89	5	his	7	333.0	NA
77	2	19	M	Filler	89	5	neighbor	8	333.0	NA
77	2	19	M	Filler	89	5	because	9	333.0	NA
77	2	19	M	Filler	89	5	she	10	299.0	NA
77	2	19	M	Filler	89	5	had	11	351.0	NA
77	2	19	M	Filler	89	5	gone	12	301.0	NA
77	2	19	M	Filler	89	5	out	13	333.0	NA
77	2	19	M	Filler	89	5	of	14	332.0	NA
77	2	19	M	Filler	89	5	town	15	267.0	NA
77	2	19	M	Filler	89	5	for	16	367.0	NA
77	2	19	M	Filler	89	5	a	17	349.0	NA
77	2	19	M	Filler	89	5	few	18	336.0	NA
77	2	19	M	Filler	89	5	days.	19	466.0	NA
77	2	19	M	Question	89	5	NA	NA	3434.0	0
78	2	19	M	Filler	79	5	Although	1	95.0	NA
78	2	19	M	Filler	79	5	the	2	434.0	NA
78	2	19	M	Filler	79	5	mechanic	3	298.0	NA
78	2	19	M	Filler	79	5	said	4	268.0	NA
78	2	19	M	Filler	79	5	the	5	299.0	NA
78	2	19	M	Filler	79	5	job	6	302.0	NA
78	2	19	M	Filler	79	5	would	7	299.0	NA
78	2	19	M	Filler	79	5	take	8	399.0	NA
78	2	19	M	Filler	79	5	four	9	367.0	NA
78	2	19	M	Filler	79	5	days	10	502.0	NA
78	2	19	M	Filler	79	5	the	11	300.0	NA
78	2	19	M	Filler	79	5	client	12	399.0	NA
78	2	19	M	Filler	79	5	didn't	13	300.0	NA
78	2	19	M	Filler	79	5	receive	14	233.0	NA
78	2	19	M	Filler	79	5	her	15	267.0	NA
78	2	19	M	Filler	79	5	car	16	300.0	NA
78	2	19	M	Filler	79	5	for	17	367.0	NA
78	2	19	M	Filler	79	5	six	18	299.0	NA
78	2	19	M	Filler	79	5	weeks.	19	1234.0	NA
78	2	19	M	Question	79	5	NA	NA	1367.0	1
79	2	19	M	Filler	126	6	The	1	194.0	NA
79	2	19	M	Filler	126	6	boxes	2	334.0	NA
79	2	19	M	Filler	126	6	and	3	301.0	NA
79	2	19	M	Filler	126	6	hangers	4	266.0	NA
79	2	19	M	Filler	126	6	had	5	284.0	NA
79	2	19	M	Filler	126	6	been	6	400.0	NA
79	2	19	M	Filler	126	6	stuffed	7	300.0	NA
79	2	19	M	Filler	126	6	in	8	301.0	NA
79	2	19	M	Filler	126	6	the	9	266.0	NA
79	2	19	M	Filler	126	6	closet.	10	267.0	NA
79	2	19	M	Question	126	6	NA	NA	4184.0	1
80	2	19	M	Filler	118	6	As	1	4397.0	NA
80	2	19	M	Filler	118	6	the	2	600.0	NA
80	2	19	M	Filler	118	6	dog	3	366.0	NA
80	2	19	M	Filler	118	6	ran	4	2201.0	NA
80	2	19	M	Filler	118	6	Wanda	5	399.0	NA
80	2	19	M	Filler	118	6	watched	6	436.0	NA
80	2	19	M	Filler	118	6	from	7	365.0	NA
80	2	19	M	Filler	118	6	the	8	300.0	NA
80	2	19	M	Filler	118	6	window.	9	300.0	NA
80	2	19	M	Question	118	6	NA	NA	1283.0	1
81	2	19	M	Filler	113	6	While	1	1695.0	NA
81	2	19	M	Filler	113	6	Noah	2	466.0	NA
81	2	19	M	Filler	113	6	was	3	368.0	NA
81	2	19	M	Filler	113	6	waking	4	399.0	NA
81	2	19	M	Filler	113	6	up	5	400.0	NA
81	2	19	M	Filler	113	6	the	6	368.0	NA
81	2	19	M	Filler	113	6	man	7	400.0	NA
81	2	19	M	Filler	113	6	the	8	401.0	NA
81	2	19	M	Filler	113	6	neighbor	9	399.0	NA
81	2	19	M	Filler	113	6	coughed	10	368.0	NA
81	2	19	M	Filler	113	6	loudly.	11	598.0	NA
81	2	19	M	Question	113	6	NA	NA	1568.0	1
82	2	19	M	swets	31	2	The	1	395.0	NA
82	2	19	M	swets	31	2	aunt	2	333.0	NA
82	2	19	M	swets	31	2	of	3	367.0	NA
82	2	19	M	swets	31	2	the	4	368.0	NA
82	2	19	M	swets	31	2	milkman	5	398.0	NA
82	2	19	M	swets	31	2	who	6	368.0	NA
82	2	19	M	swets	31	2	had	7	383.0	NA
82	2	19	M	swets	31	2	to	8	400.0	NA
82	2	19	M	swets	31	2	support	9	400.0	NA
82	2	19	M	swets	31	2	himself	10	334.0	NA
82	2	19	M	swets	31	2	with	11	367.0	NA
82	2	19	M	swets	31	2	a	12	334.0	NA
82	2	19	M	swets	31	2	low	13	350.0	NA
82	2	19	M	swets	31	2	income	14	367.0	NA
82	2	19	M	swets	31	2	liked	15	366.0	NA
82	2	19	M	swets	31	2	to	16	399.0	NA
82	2	19	M	swets	31	2	fish.	17	335.0	NA
82	2	19	M	Question	31	2	NA	NA	1883.0	0
83	2	19	M	Filler	83	5	The	1	361.0	NA
83	2	19	M	Filler	83	5	passengers	2	334.0	NA
83	2	19	M	Filler	83	5	screamed	3	300.0	NA
83	2	19	M	Filler	83	5	as	4	299.0	NA
83	2	19	M	Filler	83	5	the	5	234.0	NA
83	2	19	M	Filler	83	5	plane	6	266.0	NA
83	2	19	M	Filler	83	5	dipped	7	201.0	NA
83	2	19	M	Filler	83	5	and	8	266.0	NA
83	2	19	M	Filler	83	5	the	9	234.0	NA
83	2	19	M	Filler	83	5	pilots	10	233.0	NA
83	2	19	M	Filler	83	5	said	11	201.0	NA
83	2	19	M	Filler	83	5	their	12	267.0	NA
83	2	19	M	Filler	83	5	prayers	13	233.0	NA
83	2	19	M	Filler	83	5	quietly.	14	299.0	NA
83	2	19	M	Question	83	5	NA	NA	2117.0	1
84	2	19	M	Filler	86	5	The	1	263.0	NA
84	2	19	M	Filler	86	5	family's	2	199.0	NA
84	2	19	M	Filler	86	5	television	3	199.0	NA
84	2	19	M	Filler	86	5	stopped	4	168.0	NA
84	2	19	M	Filler	86	5	working	5	200.0	NA
84	2	19	M	Filler	86	5	two	6	167.0	NA
84	2	19	M	Filler	86	5	days	7	300.0	NA
84	2	19	M	Filler	86	5	after	8	332.0	NA
84	2	19	M	Filler	86	5	the	9	268.0	NA
84	2	19	M	Filler	86	5	warranty	10	300.0	NA
84	2	19	M	Filler	86	5	expired.	11	300.0	NA
84	2	19	M	Question	86	5	NA	NA	3317.0	0
85	2	19	M	Filler	139	7	Laurie	1	94.0	NA
85	2	19	M	Filler	139	7	asked	2	634.0	NA
85	2	19	M	Filler	139	7	which	3	300.0	NA
85	2	19	M	Filler	139	7	truck	4	300.0	NA
85	2	19	M	Filler	139	7	the	5	268.0	NA
85	2	19	M	Filler	139	7	dealership	6	300.0	NA
85	2	19	M	Filler	139	7	sold	7	300.0	NA
85	2	19	M	Filler	139	7	but	8	366.0	NA
85	2	19	M	Filler	139	7	didn't	9	432.0	NA
85	2	19	M	Filler	139	7	paint	10	335.0	NA
85	2	19	M	Filler	139	7	completely.	11	300.0	NA
85	2	19	M	Question	139	7	NA	NA	2250.0	1
86	2	19	M	swets	13	2	The	1	27.0	NA
86	2	19	M	swets	13	2	great-aunt	2	300.0	NA
86	2	19	M	swets	13	2	of	3	301.0	NA
86	2	19	M	swets	13	2	the	4	333.0	NA
86	2	19	M	swets	13	2	policeman	5	300.0	NA
86	2	19	M	swets	13	2	who	6	333.0	NA
86	2	19	M	swets	13	2	treated	7	335.0	NA
86	2	19	M	swets	13	2	himself	8	334.0	NA
86	2	19	M	swets	13	2	after	9	365.0	NA
86	2	19	M	swets	13	2	the	10	333.0	NA
86	2	19	M	swets	13	2	accident	11	301.0	NA
86	2	19	M	swets	13	2	was	12	300.0	NA
86	2	19	M	swets	13	2	watching	13	300.0	NA
86	2	19	M	swets	13	2	the	14	366.0	NA
86	2	19	M	swets	13	2	news.	15	334.0	NA
86	2	19	M	Question	13	2	NA	NA	1919.0	1
87	2	19	M	Filler	68	4	The	1	295.0	NA
87	2	19	M	Filler	68	4	scientist	2	267.0	NA
87	2	19	M	Filler	68	4	published	3	332.0	NA
87	2	19	M	Filler	68	4	a	4	301.0	NA
87	2	19	M	Filler	68	4	paper	5	333.0	NA
87	2	19	M	Filler	68	4	in	6	401.0	NA
87	2	19	M	Filler	68	4	the	7	300.0	NA
87	2	19	M	Filler	68	4	journal	8	367.0	NA
87	2	19	M	Filler	68	4	of	9	332.0	NA
87	2	19	M	Filler	68	4	the	10	300.0	NA
87	2	19	M	Filler	68	4	foreign	11	335.0	NA
87	2	19	M	Filler	68	4	organization.	12	432.0	NA
87	2	19	M	Question	68	4	NA	NA	2267.0	1
88	2	19	M	Filler	131	7	While	1	429.0	NA
88	2	19	M	Filler	131	7	Jamie	2	332.0	NA
88	2	19	M	Filler	131	7	dried	3	334.0	NA
88	2	19	M	Filler	131	7	off	4	333.0	NA
88	2	19	M	Filler	131	7	the	5	302.0	NA
88	2	19	M	Filler	131	7	table	6	266.0	NA
88	2	19	M	Filler	131	7	his	7	366.0	NA
88	2	19	M	Filler	131	7	sunglasses	8	366.0	NA
88	2	19	M	Filler	131	7	disappeared.	9	336.0	NA
88	2	19	M	Question	131	7	NA	NA	11785.0	0
89	2	19	M	swets	7	2	The	1	429.0	NA
89	2	19	M	swets	7	2	nephew	2	432.0	NA
89	2	19	M	swets	7	2	of	3	369.0	NA
89	2	19	M	swets	7	2	the	4	331.0	NA
89	2	19	M	swets	7	2	waitress	5	301.0	NA
89	2	19	M	swets	7	2	who	6	267.0	NA
89	2	19	M	swets	7	2	hurt	7	333.0	NA
89	2	19	M	swets	7	2	herself	8	282.0	NA
89	2	19	M	swets	7	2	on	9	250.0	NA
89	2	19	M	swets	7	2	the	10	267.0	NA
89	2	19	M	swets	7	2	bicycle	11	334.0	NA
89	2	19	M	swets	7	2	was	12	300.0	NA
89	2	19	M	swets	7	2	angry	13	299.0	NA
89	2	19	M	swets	7	2	about	14	268.0	NA
89	2	19	M	swets	7	2	the	15	332.0	NA
89	2	19	M	swets	7	2	incident.	16	268.0	NA
89	2	19	M	Question	7	2	NA	NA	2301.0	1
90	2	19	M	Filler	105	5	The	1	362.0	NA
90	2	19	M	Filler	105	5	actors	2	300.0	NA
90	2	19	M	Filler	105	5	rehearsed	3	268.0	NA
90	2	19	M	Filler	105	5	the	4	366.0	NA
90	2	19	M	Filler	105	5	play	5	234.0	NA
90	2	19	M	Filler	105	5	so	6	198.0	NA
90	2	19	M	Filler	105	5	much	7	234.0	NA
90	2	19	M	Filler	105	5	that	8	217.0	NA
90	2	19	M	Filler	105	5	they	9	733.0	NA
90	2	19	M	Filler	105	5	became	10	401.0	NA
90	2	19	M	Filler	105	5	bored	11	298.0	NA
90	2	19	M	Filler	105	5	with	12	501.0	NA
90	2	19	M	Filler	105	5	it.	13	233.0	NA
90	2	19	M	Question	105	5	NA	NA	1167.0	1
91	2	19	M	swets	32	3	The	1	228.0	NA
91	2	19	M	swets	32	3	nephew	2	265.0	NA
91	2	19	M	swets	32	3	of	3	268.0	NA
91	2	19	M	swets	32	3	the	4	266.0	NA
91	2	19	M	swets	32	3	duchess	5	201.0	NA
91	2	19	M	swets	32	3	who	6	233.0	NA
91	2	19	M	swets	32	3	looked	7	266.0	NA
91	2	19	M	swets	32	3	at	8	335.0	NA
91	2	19	M	swets	32	3	himself	9	334.0	NA
91	2	19	M	swets	32	3	in	10	266.0	NA
91	2	19	M	swets	32	3	the	11	366.0	NA
91	2	19	M	swets	32	3	mirror	12	300.0	NA
91	2	19	M	swets	32	3	wore	13	283.0	NA
91	2	19	M	swets	32	3	a	14	251.0	NA
91	2	19	M	swets	32	3	blue	15	234.0	NA
91	2	19	M	swets	32	3	shirt.	16	232.0	NA
91	2	19	M	Question	32	3	NA	NA	1167.0	1
92	2	19	M	Filler	112	6	As	1	196.0	NA
92	2	19	M	Filler	112	6	the	2	266.0	NA
92	2	19	M	Filler	112	6	dog	3	199.0	NA
92	2	19	M	Filler	112	6	was	4	200.0	NA
92	2	19	M	Filler	112	6	calming	5	167.0	NA
92	2	19	M	Filler	112	6	down	6	200.0	NA
92	2	19	M	Filler	112	6	the	7	133.0	NA
92	2	19	M	Filler	112	6	puppy	8	134.0	NA
92	2	19	M	Filler	112	6	slept	9	134.0	NA
92	2	19	M	Filler	112	6	in	10	165.0	NA
92	2	19	M	Filler	112	6	the	11	435.0	NA
92	2	19	M	Filler	112	6	cage.	12	433.0	NA
92	2	19	M	Question	112	6	NA	NA	1517.0	1
93	2	19	M	Filler	121	6	The	1	528.0	NA
93	2	19	M	Filler	121	6	ecologist	2	166.0	NA
93	2	19	M	Filler	121	6	wondered	3	66.0	NA
93	2	19	M	Filler	121	6	which	4	533.0	NA
93	2	19	M	Filler	121	6	plants	5	234.0	NA
93	2	19	M	Filler	121	6	the	6	267.0	NA
93	2	19	M	Filler	121	6	scientist	7	233.0	NA
93	2	19	M	Filler	121	6	grew	8	302.0	NA
93	2	19	M	Filler	121	6	but	9	433.0	NA
93	2	19	M	Filler	121	6	didn't	10	200.0	NA
93	2	19	M	Filler	121	6	modify	11	166.0	NA
93	2	19	M	Filler	121	6	the	12	167.0	NA
93	2	19	M	Filler	121	6	seeds	13	134.0	NA
93	2	19	M	Filler	121	6	of	14	166.0	NA
93	2	19	M	Filler	121	6	in	15	133.0	NA
93	2	19	M	Filler	121	6	the	16	267.0	NA
93	2	19	M	Filler	121	6	lab.	17	234.0	NA
93	2	19	M	Question	121	6	NA	NA	933.0	1
94	2	19	M	swets	6	1	The	1	129.0	NA
94	2	19	M	swets	6	1	brother	2	267.0	NA
94	2	19	M	swets	6	1	of	3	333.0	NA
94	2	19	M	swets	6	1	the	4	267.0	NA
94	2	19	M	swets	6	1	mayor	5	266.0	NA
94	2	19	M	swets	6	1	who	6	268.0	NA
94	2	19	M	swets	6	1	complimented	7	200.0	NA
94	2	19	M	swets	6	1	himself	8	365.0	NA
94	2	19	M	swets	6	1	constantly	9	268.0	NA
94	2	19	M	swets	6	1	was	10	334.0	NA
94	2	19	M	swets	6	1	bothered	11	266.0	NA
94	2	19	M	swets	6	1	by	12	468.0	NA
94	2	19	M	swets	6	1	the	13	300.0	NA
94	2	19	M	swets	6	1	reporter.	14	265.0	NA
94	2	19	M	Question	6	1	NA	NA	2535.0	1
95	2	19	M	Filler	71	4	The	1	94.0	NA
95	2	19	M	Filler	71	4	elderly	2	302.0	NA
95	2	19	M	Filler	71	4	woman	3	298.0	NA
95	2	19	M	Filler	71	4	locked	4	301.0	NA
95	2	19	M	Filler	71	4	and	5	251.0	NA
95	2	19	M	Filler	71	4	bolted	6	299.0	NA
95	2	19	M	Filler	71	4	her	7	267.0	NA
95	2	19	M	Filler	71	4	door	8	266.0	NA
95	2	19	M	Filler	71	4	every	9	368.0	NA
95	2	19	M	Filler	71	4	night	10	367.0	NA
95	2	19	M	Filler	71	4	after	11	368.0	NA
95	2	19	M	Filler	71	4	the	12	299.0	NA
95	2	19	M	Filler	71	4	robbers	13	267.0	NA
95	2	19	M	Filler	71	4	took	14	366.0	NA
95	2	19	M	Filler	71	4	her	15	334.0	NA
95	2	19	M	Filler	71	4	best	16	300.0	NA
95	2	19	M	Filler	71	4	pearls.	17	332.0	NA
95	2	19	M	Question	71	4	NA	NA	1750.0	1
96	2	19	M	Filler	55	4	The	1	328.0	NA
96	2	19	M	Filler	55	4	people	2	234.0	NA
96	2	19	M	Filler	55	4	certainly	3	400.0	NA
96	2	19	M	Filler	55	4	admired	4	234.0	NA
96	2	19	M	Filler	55	4	the	5	299.0	NA
96	2	19	M	Filler	55	4	wife	6	500.0	NA
96	2	19	M	Filler	55	4	of	7	268.0	NA
96	2	19	M	Filler	55	4	the	8	233.0	NA
96	2	19	M	Filler	55	4	janitor	9	233.0	NA
96	2	19	M	Filler	55	4	because	10	300.0	NA
96	2	19	M	Filler	55	4	she	11	201.0	NA
96	2	19	M	Filler	55	4	educated	12	367.0	NA
96	2	19	M	Filler	55	4	herself	13	232.0	NA
96	2	19	M	Filler	55	4	at	14	218.0	NA
96	2	19	M	Filler	55	4	night.	15	667.0	NA
96	2	19	M	Question	55	4	NA	NA	1450.0	1
97	2	19	M	swets	19	2	The	1	328.0	NA
97	2	19	M	swets	19	2	mistress	2	301.0	NA
97	2	19	M	swets	19	2	of	3	334.0	NA
97	2	19	M	swets	19	2	the	4	233.0	NA
97	2	19	M	swets	19	2	actor	5	267.0	NA
97	2	19	M	swets	19	2	who	6	267.0	NA
97	2	19	M	swets	19	2	hated	7	266.0	NA
97	2	19	M	swets	19	2	himself	8	299.0	NA
97	2	19	M	swets	19	2	for	9	302.0	NA
97	2	19	M	swets	19	2	lying	10	333.0	NA
97	2	19	M	swets	19	2	left	11	266.0	NA
97	2	19	M	swets	19	2	town	12	234.0	NA
97	2	19	M	swets	19	2	in	13	233.0	NA
97	2	19	M	swets	19	2	a	14	201.0	NA
97	2	19	M	swets	19	2	hurry.	15	200.0	NA
97	2	19	M	Question	19	2	NA	NA	2549.0	1
98	2	19	M	Filler	43	4	The	1	295.0	NA
98	2	19	M	Filler	43	4	movie	2	267.0	NA
98	2	19	M	Filler	43	4	director	3	265.0	NA
98	2	19	M	Filler	43	4	refused	4	267.0	NA
98	2	19	M	Filler	43	4	to	5	200.0	NA
98	2	19	M	Filler	43	4	work	6	267.0	NA
98	2	19	M	Filler	43	4	with	7	233.0	NA
98	2	19	M	Filler	43	4	the	8	233.0	NA
98	2	19	M	Filler	43	4	producer	9	201.0	NA
98	2	19	M	Filler	43	4	again	10	166.0	NA
98	2	19	M	Filler	43	4	after	11	268.0	NA
98	2	19	M	Filler	43	4	winning	12	266.0	NA
98	2	19	M	Filler	43	4	the	13	268.0	NA
98	2	19	M	Filler	43	4	grand	14	199.0	NA
98	2	19	M	Filler	43	4	prize.	15	233.0	NA
98	2	19	M	Question	43	4	NA	NA	1767.0	1
99	2	19	M	Filler	85	5	The	1	295.0	NA
99	2	19	M	Filler	85	5	college	2	200.0	NA
99	2	19	M	Filler	85	5	students	3	266.0	NA
99	2	19	M	Filler	85	5	were	4	201.0	NA
99	2	19	M	Filler	85	5	upset	5	231.0	NA
99	2	19	M	Filler	85	5	that	6	236.0	NA
99	2	19	M	Filler	85	5	they	7	233.0	NA
99	2	19	M	Filler	85	5	had	8	300.0	NA
99	2	19	M	Filler	85	5	an	9	201.0	NA
99	2	19	M	Filler	85	5	exam	10	233.0	NA
99	2	19	M	Filler	85	5	the	11	233.0	NA
99	2	19	M	Filler	85	5	next	12	267.0	NA
99	2	19	M	Filler	85	5	day.	13	267.0	NA
99	2	19	M	Question	85	5	NA	NA	1349.0	1
100	2	19	M	Filler	99	5	The	1	195.0	NA
100	2	19	M	Filler	99	5	daring	2	266.0	NA
100	2	19	M	Filler	99	5	photographer	3	265.0	NA
100	2	19	M	Filler	99	5	captured	4	301.0	NA
100	2	19	M	Filler	99	5	the	5	234.0	NA
100	2	19	M	Filler	99	5	image	6	334.0	NA
100	2	19	M	Filler	99	5	of	7	298.0	NA
100	2	19	M	Filler	99	5	the	8	235.0	NA
100	2	19	M	Filler	99	5	destruction	9	267.0	NA
100	2	19	M	Filler	99	5	as	10	233.0	NA
100	2	19	M	Filler	99	5	it	11	267.0	NA
100	2	19	M	Filler	99	5	devastated	12	265.0	NA
100	2	19	M	Filler	99	5	the	13	235.0	NA
100	2	19	M	Filler	99	5	village.	14	201.0	NA
100	2	19	M	Question	99	5	NA	NA	1566.0	1
101	2	19	M	swets	20	3	The	1	423.0	NA
101	2	19	M	swets	20	3	sister	2	338.0	NA
101	2	19	M	swets	20	3	of	3	267.0	NA
101	2	19	M	swets	20	3	the	4	266.0	NA
101	2	19	M	swets	20	3	count	5	234.0	NA
101	2	19	M	swets	20	3	who	6	234.0	NA
101	2	19	M	swets	20	3	crippled	7	200.0	NA
101	2	19	M	swets	20	3	herself	8	201.0	NA
101	2	19	M	swets	20	3	by	9	200.0	NA
101	2	19	M	swets	20	3	falling	10	232.0	NA
101	2	19	M	swets	20	3	off	11	201.0	NA
101	2	19	M	swets	20	3	a	12	216.0	NA
101	2	19	M	swets	20	3	horse	13	234.0	NA
101	2	19	M	swets	20	3	took	14	400.0	NA
101	2	19	M	swets	20	3	a	15	200.0	NA
101	2	19	M	swets	20	3	long	16	300.0	NA
101	2	19	M	swets	20	3	time	17	267.0	NA
101	2	19	M	swets	20	3	to	18	332.0	NA
101	2	19	M	swets	20	3	get	19	268.0	NA
101	2	19	M	swets	20	3	over	20	300.0	NA
101	2	19	M	swets	20	3	it.	21	285.0	NA
101	2	19	M	Question	20	3	NA	NA	1598.0	1
102	2	19	M	Filler	82	5	The	1	95.0	NA
102	2	19	M	Filler	82	5	patient's	2	232.0	NA
102	2	19	M	Filler	82	5	seizures	3	200.0	NA
102	2	19	M	Filler	82	5	appeared	4	168.0	NA
102	2	19	M	Filler	82	5	to	5	200.0	NA
102	2	19	M	Filler	82	5	have	6	200.0	NA
102	2	19	M	Filler	82	5	been	7	235.0	NA
102	2	19	M	Filler	82	5	eliminated	8	232.0	NA
102	2	19	M	Filler	82	5	by	9	183.0	NA
102	2	19	M	Filler	82	5	the	10	201.0	NA
102	2	19	M	Filler	82	5	surgery.	11	199.0	NA
102	2	19	M	Question	82	5	NA	NA	1400.0	1
103	2	19	M	Filler	106	5	On	1	297.0	NA
103	2	19	M	Filler	106	5	the	2	300.0	NA
103	2	19	M	Filler	106	5	last	3	199.0	NA
103	2	19	M	Filler	106	5	night	4	201.0	NA
103	2	19	M	Filler	106	5	of	5	232.0	NA
103	2	19	M	Filler	106	5	summer	6	168.0	NA
103	2	19	M	Filler	106	5	camp	7	199.0	NA
103	2	19	M	Filler	106	5	the	8	200.0	NA
103	2	19	M	Filler	106	5	counselors	9	167.0	NA
103	2	19	M	Filler	106	5	let	10	234.0	NA
103	2	19	M	Filler	106	5	the	11	232.0	NA
103	2	19	M	Filler	106	5	children	12	201.0	NA
103	2	19	M	Filler	106	5	stay	13	166.0	NA
103	2	19	M	Filler	106	5	up	14	167.0	NA
103	2	19	M	Filler	106	5	until	15	233.0	NA
103	2	19	M	Filler	106	5	midnight.	16	335.0	NA
103	2	19	M	Question	106	5	NA	NA	1751.0	1
104	2	19	M	swets	10	2	The	1	28.0	NA
104	2	19	M	swets	10	2	uncle	2	199.0	NA
104	2	19	M	swets	10	2	of	3	168.0	NA
104	2	19	M	swets	10	2	the	4	166.0	NA
104	2	19	M	swets	10	2	nun	5	200.0	NA
104	2	19	M	swets	10	2	who	6	133.0	NA
104	2	19	M	swets	10	2	lost	7	101.0	NA
104	2	19	M	swets	10	2	herself	8	200.0	NA
104	2	19	M	swets	10	2	in	9	200.0	NA
104	2	19	M	swets	10	2	thought	10	168.0	NA
104	2	19	M	swets	10	2	was	11	200.0	NA
104	2	19	M	swets	10	2	disturbed	12	215.0	NA
104	2	19	M	swets	10	2	by	13	136.0	NA
104	2	19	M	swets	10	2	the	14	231.0	NA
104	2	19	M	swets	10	2	noise.	15	200.0	NA
104	2	19	M	Question	10	2	NA	NA	1701.0	0
105	2	19	M	Filler	87	5	The	1	229.0	NA
105	2	19	M	Filler	87	5	car	2	334.0	NA
105	2	19	M	Filler	87	5	chased	3	299.0	NA
105	2	19	M	Filler	87	5	the	4	233.0	NA
105	2	19	M	Filler	87	5	robber	5	235.0	NA
105	2	19	M	Filler	87	5	of	6	200.0	NA
105	2	19	M	Filler	87	5	the	7	199.0	NA
105	2	19	M	Filler	87	5	bank	8	200.0	NA
105	2	19	M	Filler	87	5	into	9	199.0	NA
105	2	19	M	Filler	87	5	a	10	317.0	NA
105	2	19	M	Filler	87	5	narrow	11	300.0	NA
105	2	19	M	Filler	87	5	alley.	12	267.0	NA
105	2	19	M	Question	87	5	NA	NA	3385.0	1
106	2	19	M	swets	24	1	The	1	462.0	NA
106	2	19	M	swets	24	1	assistant	2	200.0	NA
106	2	19	M	swets	24	1	of	3	299.0	NA
106	2	19	M	swets	24	1	the	4	267.0	NA
106	2	19	M	swets	24	1	chaplain	5	235.0	NA
106	2	19	M	swets	24	1	who	6	299.0	NA
106	2	19	M	swets	24	1	drew	7	300.0	NA
106	2	19	M	swets	24	1	attention	8	268.0	NA
106	2	19	M	swets	24	1	to	9	266.0	NA
106	2	19	M	swets	24	1	himself	10	234.0	NA
106	2	19	M	swets	24	1	all	11	232.0	NA
106	2	19	M	swets	24	1	the	12	234.0	NA
106	2	19	M	swets	24	1	time	13	233.0	NA
106	2	19	M	swets	24	1	hated	14	201.0	NA
106	2	19	M	swets	24	1	small	15	233.0	NA
106	2	19	M	swets	24	1	children.	16	201.0	NA
106	2	19	M	Question	24	1	NA	NA	5367.0	1
107	2	19	M	Filler	97	5	The	1	462.0	NA
107	2	19	M	Filler	97	5	tall	2	216.0	NA
107	2	19	M	Filler	97	5	man	3	201.0	NA
107	2	19	M	Filler	97	5	laughed	4	165.0	NA
107	2	19	M	Filler	97	5	at	5	168.0	NA
107	2	19	M	Filler	97	5	the	6	200.0	NA
107	2	19	M	Filler	97	5	clumsy	7	165.0	NA
107	2	19	M	Filler	97	5	child	8	168.0	NA
107	2	19	M	Filler	97	5	who	9	234.0	NA
107	2	19	M	Filler	97	5	spilled	10	234.0	NA
107	2	19	M	Filler	97	5	the	11	199.0	NA
107	2	19	M	Filler	97	5	milk	12	168.0	NA
107	2	19	M	Filler	97	5	on	13	165.0	NA
107	2	19	M	Filler	97	5	himself.	14	402.0	NA
107	2	19	M	Question	97	5	NA	NA	1099.0	1
108	2	19	M	Filler	73	5	My	1	94.0	NA
108	2	19	M	Filler	73	5	cousins	2	167.0	NA
108	2	19	M	Filler	73	5	admired	3	200.0	NA
108	2	19	M	Filler	73	5	the	4	200.0	NA
108	2	19	M	Filler	73	5	singer	5	333.0	NA
108	2	19	M	Filler	73	5	although	6	235.0	NA
108	2	19	M	Filler	73	5	she	7	300.0	NA
108	2	19	M	Filler	73	5	never	8	300.0	NA
108	2	19	M	Filler	73	5	became	9	266.0	NA
108	2	19	M	Filler	73	5	popular.	10	299.0	NA
108	2	19	M	Question	73	5	NA	NA	2652.0	1
109	2	19	M	Filler	62	4	After	1	162.0	NA
109	2	19	M	Filler	62	4	much	2	298.0	NA
109	2	19	M	Filler	62	4	deliberation	3	234.0	NA
109	2	19	M	Filler	62	4	the	4	267.0	NA
109	2	19	M	Filler	62	4	jury	5	200.0	NA
109	2	19	M	Filler	62	4	found	6	200.0	NA
109	2	19	M	Filler	62	4	the	7	301.0	NA
109	2	19	M	Filler	62	4	defendant	8	399.0	NA
109	2	19	M	Filler	62	4	not	9	368.0	NA
109	2	19	M	Filler	62	4	guilty.	10	334.0	NA
109	2	19	M	Question	62	4	NA	NA	1999.0	1
110	2	19	M	Filler	129	7	While	1	79.0	NA
110	2	19	M	Filler	129	7	Scott	2	232.0	NA
110	2	19	M	Filler	129	7	vacuumed	3	235.0	NA
110	2	19	M	Filler	129	7	the	4	233.0	NA
110	2	19	M	Filler	129	7	carpet	5	200.0	NA
110	2	19	M	Filler	129	7	the	6	200.0	NA
110	2	19	M	Filler	129	7	drapes	7	202.0	NA
110	2	19	M	Filler	129	7	flapped	8	398.0	NA
110	2	19	M	Filler	129	7	in	9	334.0	NA
110	2	19	M	Filler	129	7	the	10	301.0	NA
110	2	19	M	Filler	129	7	breeze.	11	300.0	NA
110	2	19	M	Question	129	7	NA	NA	1399.0	1
111	2	19	M	swets	36	1	The	1	95.0	NA
111	2	19	M	swets	36	1	daughter	2	200.0	NA
111	2	19	M	swets	36	1	of	3	300.0	NA
111	2	19	M	swets	36	1	the	4	232.0	NA
111	2	19	M	swets	36	1	saleswoman	5	201.0	NA
111	2	19	M	swets	36	1	who	6	200.0	NA
111	2	19	M	swets	36	1	talked	7	167.0	NA
111	2	19	M	swets	36	1	to	8	266.0	NA
111	2	19	M	swets	36	1	herself	9	168.0	NA
111	2	19	M	swets	36	1	all	10	199.0	NA
111	2	19	M	swets	36	1	the	11	133.0	NA
111	2	19	M	swets	36	1	time	12	134.0	NA
111	2	19	M	swets	36	1	walked	13	268.0	NA
111	2	19	M	swets	36	1	into	14	199.0	NA
111	2	19	M	swets	36	1	the	15	135.0	NA
111	2	19	M	swets	36	1	room.	16	265.0	NA
111	2	19	M	Question	36	1	NA	NA	950.0	1
112	2	19	M	Filler	38	4	Despite	1	44.0	NA
112	2	19	M	Filler	38	4	the	2	166.0	NA
112	2	19	M	Filler	38	4	lack	3	235.0	NA
112	2	19	M	Filler	38	4	of	4	232.0	NA
112	2	19	M	Filler	38	4	publicity	5	200.0	NA
112	2	19	M	Filler	38	4	many	6	167.0	NA
112	2	19	M	Filler	38	4	people	7	151.0	NA
112	2	19	M	Filler	38	4	attended	8	168.0	NA
112	2	19	M	Filler	38	4	the	9	133.0	NA
112	2	19	M	Filler	38	4	lecture.	10	132.0	NA
112	2	19	M	Question	38	4	NA	NA	1851.0	0
113	2	19	M	Filler	141	7	The	1	228.0	NA
113	2	19	M	Filler	141	7	nurse	2	634.0	NA
113	2	19	M	Filler	141	7	and	3	334.0	NA
113	2	19	M	Filler	141	7	custodian	4	267.0	NA
113	2	19	M	Filler	141	7	chatted	5	300.0	NA
113	2	19	M	Filler	141	7	during	6	300.0	NA
113	2	19	M	Filler	141	7	their	7	234.0	NA
113	2	19	M	Filler	141	7	break.	8	282.0	NA
113	2	19	M	Question	141	7	NA	NA	801.0	1
114	2	19	M	Filler	46	4	The	1	128.0	NA
114	2	19	M	Filler	46	4	preacher	2	300.0	NA
114	2	19	M	Filler	46	4	of	3	301.0	NA
114	2	19	M	Filler	46	4	the	4	300.0	NA
114	2	19	M	Filler	46	4	congregation	5	234.0	NA
114	2	19	M	Filler	46	4	had	6	299.0	NA
114	2	19	M	Filler	46	4	given	7	332.0	NA
114	2	19	M	Filler	46	4	a	8	286.0	NA
114	2	19	M	Filler	46	4	sermon	9	299.0	NA
114	2	19	M	Filler	46	4	at	10	217.0	NA
114	2	19	M	Filler	46	4	a	11	249.0	NA
114	2	19	M	Filler	46	4	local	12	201.0	NA
114	2	19	M	Filler	46	4	school.	13	366.0	NA
114	2	19	M	Question	46	4	NA	NA	1351.0	1
115	2	19	M	swets	22	2	The	1	162.0	NA
115	2	19	M	swets	22	2	niece	2	332.0	NA
115	2	19	M	swets	22	2	of	3	468.0	NA
115	2	19	M	swets	22	2	the	4	249.0	NA
115	2	19	M	swets	22	2	commander	5	232.0	NA
115	2	19	M	swets	22	2	who	6	234.0	NA
115	2	19	M	swets	22	2	calmed	7	235.0	NA
115	2	19	M	swets	22	2	himself	8	266.0	NA
115	2	19	M	swets	22	2	after	9	232.0	NA
115	2	19	M	swets	22	2	the	10	235.0	NA
115	2	19	M	swets	22	2	tragedy	11	265.0	NA
115	2	19	M	swets	22	2	was	12	268.0	NA
115	2	19	M	swets	22	2	waiting	13	200.0	NA
115	2	19	M	swets	22	2	for	14	232.0	NA
115	2	19	M	swets	22	2	the	15	200.0	NA
115	2	19	M	swets	22	2	doctor.	16	202.0	NA
115	2	19	M	Question	22	2	NA	NA	1801.0	1
116	2	19	M	Filler	49	4	The	1	28.0	NA
116	2	19	M	Filler	49	4	construction	2	233.0	NA
116	2	19	M	Filler	49	4	worker	3	300.0	NA
116	2	19	M	Filler	49	4	sued	4	299.0	NA
116	2	19	M	Filler	49	4	the	5	268.0	NA
116	2	19	M	Filler	49	4	son	6	250.0	NA
116	2	19	M	Filler	49	4	of	7	266.0	NA
116	2	19	M	Filler	49	4	that	8	218.0	NA
116	2	19	M	Filler	49	4	greedy	9	365.0	NA
116	2	19	M	Filler	49	4	banker.	10	235.0	NA
116	2	19	M	Question	49	4	NA	NA	1700.0	1
117	2	19	M	Filler	44	4	The	1	262.0	NA
117	2	19	M	Filler	44	4	solicitor	2	265.0	NA
117	2	19	M	Filler	44	4	wearing	3	201.0	NA
117	2	19	M	Filler	44	4	the	4	8669.0	NA
117	2	19	M	Filler	44	4	new	5	484.0	NA
117	2	19	M	Filler	44	4	tuxedo	6	365.0	NA
117	2	19	M	Filler	44	4	bothered	7	268.0	NA
117	2	19	M	Filler	44	4	a	8	267.0	NA
117	2	19	M	Filler	44	4	man	9	300.0	NA
117	2	19	M	Filler	44	4	from	10	266.0	NA
117	2	19	M	Filler	44	4	New	11	267.0	NA
117	2	19	M	Filler	44	4	York.	12	350.0	NA
117	2	19	M	Question	44	4	NA	NA	3151.0	1
118	2	19	M	swets	30	1	The	1	61.0	NA
118	2	19	M	swets	30	1	maid	2	100.0	NA
118	2	19	M	swets	30	1	of	3	734.0	NA
118	2	19	M	swets	30	1	the	4	368.0	NA
118	2	19	M	swets	30	1	baroness	5	232.0	NA
118	2	19	M	swets	30	1	who	6	267.0	NA
118	2	19	M	swets	30	1	prepared	7	200.0	NA
118	2	19	M	swets	30	1	herself	8	201.0	NA
118	2	19	M	swets	30	1	very	9	433.0	NA
118	2	19	M	swets	30	1	thoroughly	10	1300.0	NA
118	2	19	M	swets	30	1	came	11	367.0	NA
118	2	19	M	swets	30	1	from	12	466.0	NA
118	2	19	M	swets	30	1	the	13	334.0	NA
118	2	19	M	swets	30	1	south.	14	534.0	NA
118	2	19	M	Question	30	1	NA	NA	1801.0	1
119	2	19	M	Filler	124	6	The	1	294.0	NA
119	2	19	M	Filler	124	6	mothers	2	266.0	NA
119	2	19	M	Filler	124	6	and	3	235.0	NA
119	2	19	M	Filler	124	6	teachers	4	200.0	NA
119	2	19	M	Filler	124	6	played	5	300.0	NA
119	2	19	M	Filler	124	6	tennis	6	266.0	NA
119	2	19	M	Filler	124	6	after	7	266.0	NA
119	2	19	M	Filler	124	6	the	8	201.0	NA
119	2	19	M	Filler	124	6	kids	9	232.0	NA
119	2	19	M	Filler	124	6	left.	10	235.0	NA
119	2	19	M	Question	124	6	NA	NA	950.0	1
120	2	19	M	Filler	116	6	As	1	328.0	NA
120	2	19	M	Filler	116	6	the	2	233.0	NA
120	2	19	M	Filler	116	6	survivors	3	233.0	NA
120	2	19	M	Filler	116	6	were	4	218.0	NA
120	2	19	M	Filler	116	6	embracing	5	199.0	NA
120	2	19	M	Filler	116	6	the	6	167.0	NA
120	2	19	M	Filler	116	6	firefighter	7	166.0	NA
120	2	19	M	Filler	116	6	coughed	8	200.0	NA
120	2	19	M	Filler	116	6	violently.	9	167.0	NA
120	2	19	M	Question	116	6	NA	NA	1050.0	1
121	2	19	M	swets	25	2	The	1	394.0	NA
121	2	19	M	swets	25	2	grandfather	2	334.0	NA
121	2	19	M	swets	25	2	of	3	334.0	NA
121	2	19	M	swets	25	2	the	4	333.0	NA
121	2	19	M	swets	25	2	stewardess	5	299.0	NA
121	2	19	M	swets	25	2	who	6	335.0	NA
121	2	19	M	swets	25	2	treated	7	300.0	NA
121	2	19	M	swets	25	2	herself	8	266.0	NA
121	2	19	M	swets	25	2	to	9	300.0	NA
121	2	19	M	swets	25	2	an	10	334.0	NA
121	2	19	M	swets	25	2	ice-cream	11	399.0	NA
121	2	19	M	swets	25	2	cone	12	318.0	NA
121	2	19	M	swets	25	2	was	13	366.0	NA
121	2	19	M	swets	25	2	waiting	14	268.0	NA
121	2	19	M	swets	25	2	at	15	283.0	NA
121	2	19	M	swets	25	2	home.	16	266.0	NA
121	2	19	M	Question	25	2	NA	NA	1250.0	1
122	2	19	M	Filler	59	4	The	1	294.0	NA
122	2	19	M	Filler	59	4	conductor	2	269.0	NA
122	2	19	M	Filler	59	4	of	3	299.0	NA
122	2	19	M	Filler	59	4	the	4	300.0	NA
122	2	19	M	Filler	59	4	orchestra	5	301.0	NA
122	2	19	M	Filler	59	4	with	6	299.0	NA
122	2	19	M	Filler	59	4	the	7	300.0	NA
122	2	19	M	Filler	59	4	bald	8	268.0	NA
122	2	19	M	Filler	59	4	head	9	333.0	NA
122	2	19	M	Filler	59	4	plays	10	300.0	NA
122	2	19	M	Filler	59	4	excellently.	11	499.0	NA
122	2	19	M	Question	59	4	NA	NA	1351.0	1
123	2	19	M	Filler	66	4	The	1	461.0	NA
123	2	19	M	Filler	66	4	rare	2	433.0	NA
123	2	19	M	Filler	66	4	and	3	1399.0	NA
123	2	19	M	Filler	66	4	exotic	4	268.0	NA
123	2	19	M	Filler	66	4	monkey	5	268.0	NA
123	2	19	M	Filler	66	4	was	6	266.0	NA
123	2	19	M	Filler	66	4	the	7	266.0	NA
123	2	19	M	Filler	66	4	center	8	268.0	NA
123	2	19	M	Filler	66	4	of	9	299.0	NA
123	2	19	M	Filler	66	4	attention	10	301.0	NA
123	2	19	M	Filler	66	4	at	11	383.0	NA
123	2	19	M	Filler	66	4	the	12	234.0	NA
123	2	19	M	Filler	66	4	zoo.	13	266.0	NA
123	2	19	M	Question	66	4	NA	NA	2200.0	1
124	2	19	M	Filler	90	5	The	1	195.0	NA
124	2	19	M	Filler	90	5	artist	2	300.0	NA
124	2	19	M	Filler	90	5	was	3	267.0	NA
124	2	19	M	Filler	90	5	not	4	300.0	NA
124	2	19	M	Filler	90	5	satisfied	5	300.0	NA
124	2	19	M	Filler	90	5	with	6	267.0	NA
124	2	19	M	Filler	90	5	his	7	265.0	NA
124	2	19	M	Filler	90	5	painting	8	436.0	NA
124	2	19	M	Filler	90	5	because	9	265.0	NA
124	2	19	M	Filler	90	5	the	10	302.0	NA
124	2	19	M	Filler	90	5	shading	11	300.0	NA
124	2	19	M	Filler	90	5	was	12	399.0	NA
124	2	19	M	Filler	90	5	off.	13	267.0	NA
124	2	19	M	Question	90	5	NA	NA	1299.0	1
125	2	19	M	swets	12	1	The	1	428.0	NA
125	2	19	M	swets	12	1	maid	2	267.0	NA
125	2	19	M	swets	12	1	of	3	233.0	NA
125	2	19	M	swets	12	1	the	4	234.0	NA
125	2	19	M	swets	12	1	princess	5	266.0	NA
125	2	19	M	swets	12	1	who	6	234.0	NA
125	2	19	M	swets	12	1	scratched	7	299.0	NA
125	2	19	M	swets	12	1	herself	8	366.0	NA
125	2	19	M	swets	12	1	in	9	168.0	NA
125	2	19	M	swets	12	1	public	10	233.0	NA
125	2	19	M	swets	12	1	was	11	367.0	NA
125	2	19	M	swets	12	1	terribly	12	500.0	NA
125	2	19	M	swets	12	1	humiliated.	13	501.0	NA
125	2	19	M	Question	12	1	NA	NA	2800.0	1
126	2	19	M	Filler	74	5	My	1	96.0	NA
126	2	19	M	Filler	74	5	former	2	433.0	NA
126	2	19	M	Filler	74	5	girlfriend	3	267.0	NA
126	2	19	M	Filler	74	5	criticized	4	285.0	NA
126	2	19	M	Filler	74	5	the	5	299.0	NA
126	2	19	M	Filler	74	5	author's	6	333.0	NA
126	2	19	M	Filler	74	5	agent	7	300.0	NA
126	2	19	M	Filler	74	5	because	8	300.0	NA
126	2	19	M	Filler	74	5	he	9	433.0	NA
126	2	19	M	Filler	74	5	had	10	252.0	NA
126	2	19	M	Filler	74	5	failed	11	365.0	NA
126	2	19	M	Filler	74	5	to	12	268.0	NA
126	2	19	M	Filler	74	5	meet	13	334.0	NA
126	2	19	M	Filler	74	5	a	14	267.0	NA
126	2	19	M	Filler	74	5	deadline.	15	266.0	NA
126	2	19	M	Question	74	5	NA	NA	2149.0	1
127	2	19	M	Filler	63	4	The	1	62.0	NA
127	2	19	M	Filler	63	4	bride	2	201.0	NA
127	2	19	M	Filler	63	4	was	3	300.0	NA
127	2	19	M	Filler	63	4	devastated	4	234.0	NA
127	2	19	M	Filler	63	4	to	5	232.0	NA
127	2	19	M	Filler	63	4	lose	6	168.0	NA
127	2	19	M	Filler	63	4	her	7	231.0	NA
127	2	19	M	Filler	63	4	gold	8	201.0	NA
127	2	19	M	Filler	63	4	ring	9	233.0	NA
127	2	19	M	Filler	63	4	with	10	200.0	NA
127	2	19	M	Filler	63	4	a	11	218.0	NA
127	2	19	M	Filler	63	4	gleaming	12	166.0	NA
127	2	19	M	Filler	63	4	diamond	13	266.0	NA
127	2	19	M	Filler	63	4	in	14	201.0	NA
127	2	19	M	Filler	63	4	the	15	266.0	NA
127	2	19	M	Filler	63	4	middle.	16	300.0	NA
127	2	19	M	Question	63	4	NA	NA	1400.0	1
128	2	19	M	swets	23	3	The	1	228.0	NA
128	2	19	M	swets	23	3	father	2	234.0	NA
128	2	19	M	swets	23	3	of	3	332.0	NA
128	2	19	M	swets	23	3	the	4	234.0	NA
128	2	19	M	swets	23	3	ballerina	5	216.0	NA
128	2	19	M	swets	23	3	who	6	468.0	NA
128	2	19	M	swets	23	3	found	7	233.0	NA
128	2	19	M	swets	23	3	himself	8	402.0	NA
128	2	19	M	swets	23	3	in	9	465.0	NA
128	2	19	M	swets	23	3	a	10	634.0	NA
128	2	19	M	swets	23	3	lot	11	567.0	NA
128	2	19	M	swets	23	3	of	12	399.0	NA
128	2	19	M	swets	23	3	trouble	13	335.0	NA
128	2	19	M	swets	23	3	phoned	14	266.0	NA
128	2	19	M	swets	23	3	the	15	467.0	NA
128	2	19	M	swets	23	3	police.	16	300.0	NA
128	2	19	M	Question	23	3	NA	NA	14754.0	1
129	2	19	M	Filler	130	7	While	1	945.0	NA
129	2	19	M	Filler	130	7	Margo	2	400.0	NA
129	2	19	M	Filler	130	7	bathed	3	300.0	NA
129	2	19	M	Filler	130	7	the	4	335.0	NA
129	2	19	M	Filler	130	7	dog	5	232.0	NA
129	2	19	M	Filler	130	7	barked	6	367.0	NA
129	2	19	M	Filler	130	7	in	7	233.0	NA
129	2	19	M	Filler	130	7	the	8	268.0	NA
129	2	19	M	Filler	130	7	yard.	9	167.0	NA
129	2	19	M	Question	130	7	NA	NA	1600.0	1
130	2	19	M	Filler	109	6	While	1	210.0	NA
130	2	19	M	Filler	109	6	the	2	201.0	NA
130	2	19	M	Filler	109	6	farmer	3	201.0	NA
130	2	19	M	Filler	109	6	steered	4	166.0	NA
130	2	19	M	Filler	109	6	the	5	232.0	NA
130	2	19	M	Filler	109	6	truck	6	169.0	NA
130	2	19	M	Filler	109	6	the	7	166.0	NA
130	2	19	M	Filler	109	6	tractor	8	232.0	NA
130	2	19	M	Filler	109	6	pulled	9	136.0	NA
130	2	19	M	Filler	109	6	the	10	166.0	NA
130	2	19	M	Filler	109	6	plough.	11	215.0	NA
130	2	19	M	Question	109	6	NA	NA	7169.0	1
131	2	19	M	Filler	53	4	The	1	227.0	NA
131	2	19	M	Filler	53	4	clay	2	568.0	NA
131	2	19	M	Filler	53	4	pot	3	1000.0	NA
131	2	19	M	Filler	53	4	was	4	233.0	NA
131	2	19	M	Filler	53	4	full	5	200.0	NA
131	2	19	M	Filler	53	4	of	6	233.0	NA
131	2	19	M	Filler	53	4	gold	7	234.0	NA
131	2	19	M	Filler	53	4	coins	8	201.0	NA
131	2	19	M	Filler	53	4	and	9	232.0	NA
131	2	19	M	Filler	53	4	the	10	467.0	NA
131	2	19	M	Filler	53	4	thief	11	2001.0	NA
131	2	19	M	Filler	53	4	knew	12	366.0	NA
131	2	19	M	Filler	53	4	he	13	368.0	NA
131	2	19	M	Filler	53	4	had	14	316.0	NA
131	2	19	M	Filler	53	4	finally	15	300.0	NA
131	2	19	M	Filler	53	4	hit	16	267.0	NA
131	2	19	M	Filler	53	4	the	17	299.0	NA
131	2	19	M	Filler	53	4	jackpot.	18	369.0	NA
131	2	19	M	Question	53	4	NA	NA	3901.0	0
132	2	19	M	Filler	104	5	Despite	1	78.0	NA
132	2	19	M	Filler	104	5	the	2	166.0	NA
132	2	19	M	Filler	104	5	relative	3	167.0	NA
132	2	19	M	Filler	104	5	lack	4	133.0	NA
132	2	19	M	Filler	104	5	of	5	135.0	NA
132	2	19	M	Filler	104	5	rain	6	165.0	NA
132	2	19	M	Filler	104	5	the	7	134.0	NA
132	2	19	M	Filler	104	5	farmer	8	133.0	NA
132	2	19	M	Filler	104	5	harvested	9	135.0	NA
132	2	19	M	Filler	104	5	much	10	165.0	NA
132	2	19	M	Filler	104	5	wheat.	11	133.0	NA
132	2	19	M	Question	104	5	NA	NA	1902.0	1
133	2	19	M	Filler	58	4	The	1	427.0	NA
133	2	19	M	Filler	58	4	white	2	267.0	NA
133	2	19	M	Filler	58	4	dog	3	266.0	NA
133	2	19	M	Filler	58	4	bit	4	234.0	NA
133	2	19	M	Filler	58	4	the	5	234.0	NA
133	2	19	M	Filler	58	4	ankle	6	249.0	NA
133	2	19	M	Filler	58	4	of	7	532.0	NA
133	2	19	M	Filler	58	4	the	8	400.0	NA
133	2	19	M	Filler	58	4	child.	9	403.0	NA
133	2	19	M	Question	58	4	NA	NA	3800.0	1
134	2	19	M	Filler	114	6	While	1	178.0	NA
134	2	19	M	Filler	114	6	the	2	367.0	NA
134	2	19	M	Filler	114	6	winners	3	334.0	NA
134	2	19	M	Filler	114	6	were	4	283.0	NA
134	2	19	M	Filler	114	6	kissing	5	316.0	NA
134	2	19	M	Filler	114	6	the	6	235.0	NA
134	2	19	M	Filler	114	6	crowd	7	165.0	NA
134	2	19	M	Filler	114	6	cheered	8	134.0	NA
134	2	19	M	Filler	114	6	wildly.	9	134.0	NA
134	2	19	M	Question	114	6	NA	NA	1800.0	1
135	2	19	M	Filler	144	7	The	1	261.0	NA
135	2	19	M	Filler	144	7	apple	2	166.0	NA
135	2	19	M	Filler	144	7	and	3	233.0	NA
135	2	19	M	Filler	144	7	potato	4	201.0	NA
135	2	19	M	Filler	144	7	went	5	301.0	NA
135	2	19	M	Filler	144	7	rotten	6	232.0	NA
135	2	19	M	Filler	144	7	after	7	267.0	NA
135	2	19	M	Filler	144	7	a	8	233.0	NA
135	2	19	M	Filler	144	7	week.	9	334.0	NA
135	2	19	M	Question	144	7	NA	NA	1400.0	1
136	2	19	M	swets	9	1	The	1	27.0	NA
136	2	19	M	swets	9	1	sister	2	268.0	NA
136	2	19	M	swets	9	1	of	3	267.0	NA
136	2	19	M	swets	9	1	the	4	299.0	NA
136	2	19	M	swets	9	1	schoolgirl	5	201.0	NA
136	2	19	M	swets	9	1	who	6	334.0	NA
136	2	19	M	swets	9	1	burned	7	233.0	NA
136	2	19	M	swets	9	1	herself	8	233.0	NA
136	2	19	M	swets	9	1	the	9	167.0	NA
136	2	19	M	swets	9	1	other	10	201.0	NA
136	2	19	M	swets	9	1	day	11	233.0	NA
136	2	19	M	swets	9	1	was	12	266.0	NA
136	2	19	M	swets	9	1	usually	13	201.0	NA
136	2	19	M	swets	9	1	very	14	266.0	NA
136	2	19	M	swets	9	1	careful.	15	233.0	NA
136	2	19	M	Question	9	1	NA	NA	3451.0	0
137	2	19	M	Filler	117	6	While	1	111.0	NA
137	2	19	M	Filler	117	6	Mike	2	251.0	NA
137	2	19	M	Filler	117	6	coughed	3	183.0	NA
137	2	19	M	Filler	117	6	Janet	4	167.0	NA
137	2	19	M	Filler	117	6	went	5	300.0	NA
137	2	19	M	Filler	117	6	out	6	233.0	NA
137	2	19	M	Filler	117	6	to	7	234.0	NA
137	2	19	M	Filler	117	6	get	8	201.0	NA
137	2	19	M	Filler	117	6	some	9	267.0	NA
137	2	19	M	Filler	117	6	cough	10	266.0	NA
137	2	19	M	Filler	117	6	medicine.	11	233.0	NA
137	2	19	M	Question	117	6	NA	NA	1050.0	1
138	2	19	M	Filler	138	7	While	1	245.0	NA
138	2	19	M	Filler	138	7	Pedro	2	365.0	NA
138	2	19	M	Filler	138	7	was	3	134.0	NA
138	2	19	M	Filler	138	7	swimming	4	133.0	NA
138	2	19	M	Filler	138	7	the	5	68.0	NA
138	2	19	M	Filler	138	7	lifeguard	6	99.0	NA
138	2	19	M	Filler	138	7	sat	7	102.0	NA
138	2	19	M	Filler	138	7	in	8	67.0	NA
138	2	19	M	Filler	138	7	his	9	632.0	NA
138	2	19	M	Filler	138	7	chair.	10	301.0	NA
138	2	19	M	Question	138	7	NA	NA	1349.0	0
139	2	19	M	swets	11	3	The	1	94.0	NA
139	2	19	M	swets	11	3	mother	2	166.0	NA
139	2	19	M	swets	11	3	of	3	102.0	NA
139	2	19	M	swets	11	3	the	4	133.0	NA
139	2	19	M	swets	11	3	surgeon	5	34.0	NA
139	2	19	M	swets	11	3	who	6	165.0	NA
139	2	19	M	swets	11	3	made	7	868.0	NA
139	2	19	M	swets	11	3	a	8	350.0	NA
139	2	19	M	swets	11	3	fool	9	267.0	NA
139	2	19	M	swets	11	3	of	10	1134.0	NA
139	2	19	M	swets	11	3	herself	11	766.0	NA
139	2	19	M	swets	11	3	at	12	434.0	NA
139	2	19	M	swets	11	3	the	13	467.0	NA
139	2	19	M	swets	11	3	party	14	399.0	NA
139	2	19	M	swets	11	3	was	15	368.0	NA
139	2	19	M	swets	11	3	greatly	16	398.0	NA
139	2	19	M	swets	11	3	embarrassed.	17	319.0	NA
139	2	19	M	Question	11	3	NA	NA	2049.0	1
140	2	19	M	Filler	57	4	The	1	361.0	NA
140	2	19	M	Filler	57	4	architect	2	266.0	NA
140	2	19	M	Filler	57	4	was	3	268.0	NA
140	2	19	M	Filler	57	4	embarrassed	4	450.0	NA
140	2	19	M	Filler	57	4	by	5	284.0	NA
140	2	19	M	Filler	57	4	the	6	166.0	NA
140	2	19	M	Filler	57	4	memo	7	501.0	NA
140	2	19	M	Filler	57	4	of	8	232.0	NA
140	2	19	M	Filler	57	4	the	9	367.0	NA
140	2	19	M	Filler	57	4	engineer	10	267.0	NA
140	2	19	M	Filler	57	4	because	11	250.0	NA
140	2	19	M	Filler	57	4	it	12	301.0	NA
140	2	19	M	Filler	57	4	said	13	266.0	NA
140	2	19	M	Filler	57	4	that	14	334.0	NA
140	2	19	M	Filler	57	4	his	15	299.0	NA
140	2	19	M	Filler	57	4	building	16	365.0	NA
140	2	19	M	Filler	57	4	would	17	284.0	NA
140	2	19	M	Filler	57	4	collapse.	18	301.0	NA
140	2	19	M	Question	57	4	NA	NA	1850.0	1
141	2	19	M	Filler	103	5	The	1	194.0	NA
141	2	19	M	Filler	103	5	desperate	2	334.0	NA
141	2	19	M	Filler	103	5	thief	3	301.0	NA
141	2	19	M	Filler	103	5	ran	4	333.0	NA
141	2	19	M	Filler	103	5	over	5	266.0	NA
141	2	19	M	Filler	103	5	a	6	200.0	NA
141	2	19	M	Filler	103	5	child	7	200.0	NA
141	2	19	M	Filler	103	5	in	8	168.0	NA
141	2	19	M	Filler	103	5	an	9	199.0	NA
141	2	19	M	Filler	103	5	attempt	10	199.0	NA
141	2	19	M	Filler	103	5	to	11	269.0	NA
141	2	19	M	Filler	103	5	dodge	12	265.0	NA
141	2	19	M	Filler	103	5	the	13	233.0	NA
141	2	19	M	Filler	103	5	cops.	14	234.0	NA
141	2	19	M	Question	103	5	NA	NA	2650.0	1
142	2	19	M	Filler	125	6	The	1	228.0	NA
142	2	19	M	Filler	125	6	bosses	2	67.0	NA
142	2	19	M	Filler	125	6	and	3	368.0	NA
142	2	19	M	Filler	125	6	secretaries	4	165.0	NA
142	2	19	M	Filler	125	6	took	5	117.0	NA
142	2	19	M	Filler	125	6	a	6	101.0	NA
142	2	19	M	Filler	125	6	long	7	133.0	NA
142	2	19	M	Filler	125	6	lunch	8	150.0	NA
142	2	19	M	Filler	125	6	together	9	67.0	NA
142	2	19	M	Filler	125	6	every	10	133.0	NA
142	2	19	M	Filler	125	6	Friday.	11	101.0	NA
142	2	19	M	Question	125	6	NA	NA	1800.0	1
143	2	19	M	Filler	95	5	The	1	194.0	NA
143	2	19	M	Filler	95	5	receptionist	2	167.0	NA
143	2	19	M	Filler	95	5	of	3	135.0	NA
143	2	19	M	Filler	95	5	the	4	299.0	NA
143	2	19	M	Filler	95	5	company	5	199.0	NA
143	2	19	M	Filler	95	5	went	6	200.0	NA
143	2	19	M	Filler	95	5	home	7	167.0	NA
143	2	19	M	Filler	95	5	sick	8	217.0	NA
143	2	19	M	Filler	95	5	before	9	217.0	NA
143	2	19	M	Filler	95	5	moving	10	266.0	NA
143	2	19	M	Filler	95	5	across	11	201.0	NA
143	2	19	M	Filler	95	5	town.	12	167.0	NA
143	2	19	M	Question	95	5	NA	NA	1851.0	1
