trial	subj	age	gender	stimulustype	item	condition	word	position	rt	correct
0	3	21	M	swets	21	2	The	1	494.0	NA
0	3	21	M	swets	21	2	wife	2	651.0	NA
0	3	21	M	swets	21	2	of	3	299.0	NA
0	3	21	M	swets	21	2	the	4	267.0	NA
0	3	21	M	swets	21	2	janitor	5	267.0	NA
0	3	21	M	swets	21	2	who	6	285.0	NA
0	3	21	M	swets	21	2	educated	7	232.0	NA
0	3	21	M	swets	21	2	himself	8	282.0	NA
0	3	21	M	swets	21	2	at	9	285.0	NA
0	3	21	M	swets	21	2	night	10	267.0	NA
0	3	21	M	swets	21	2	loved	11	248.0	NA
0	3	21	M	swets	21	2	going	12	302.0	NA
0	3	21	M	swets	21	2	to	13	282.0	NA
0	3	21	M	swets	21	2	the	14	284.0	NA
0	3	21	M	swets	21	2	theatre.	15	284.0	NA
0	3	21	M	Question	21	2	NA	NA	1433.0	1
1	3	21	M	Filler	144	7	The	1	545.0	NA
1	3	21	M	Filler	144	7	apple	2	317.0	NA
1	3	21	M	Filler	144	7	and	3	316.0	NA
1	3	21	M	Filler	144	7	potato	4	317.0	NA
1	3	21	M	Filler	144	7	went	5	265.0	NA
1	3	21	M	Filler	144	7	rotten	6	267.0	NA
1	3	21	M	Filler	144	7	after	7	317.0	NA
1	3	21	M	Filler	144	7	a	8	300.0	NA
1	3	21	M	Filler	144	7	week.	9	302.0	NA
1	3	21	M	Question	144	7	NA	NA	917.0	1
2	3	21	M	Filler	118	6	As	1	394.0	NA
2	3	21	M	Filler	118	6	the	2	300.0	NA
2	3	21	M	Filler	118	6	dog	3	251.0	NA
2	3	21	M	Filler	118	6	ran	4	267.0	NA
2	3	21	M	Filler	118	6	Wanda	5	316.0	NA
2	3	21	M	Filler	118	6	watched	6	368.0	NA
2	3	21	M	Filler	118	6	from	7	383.0	NA
2	3	21	M	Filler	118	6	the	8	300.0	NA
2	3	21	M	Filler	118	6	window.	9	416.0	NA
2	3	21	M	Question	118	6	NA	NA	1235.0	1
3	3	21	M	swets	12	2	The	1	496.0	NA
3	3	21	M	swets	12	2	son	2	300.0	NA
3	3	21	M	swets	12	2	of	3	283.0	NA
3	3	21	M	swets	12	2	the	4	283.0	NA
3	3	21	M	swets	12	2	princess	5	283.0	NA
3	3	21	M	swets	12	2	who	6	302.0	NA
3	3	21	M	swets	12	2	scratched	7	266.0	NA
3	3	21	M	swets	12	2	himself	8	316.0	NA
3	3	21	M	swets	12	2	in	9	316.0	NA
3	3	21	M	swets	12	2	public	10	317.0	NA
3	3	21	M	swets	12	2	was	11	334.0	NA
3	3	21	M	swets	12	2	terribly	12	367.0	NA
3	3	21	M	swets	12	2	humiliated.	13	401.0	NA
3	3	21	M	Question	12	2	NA	NA	1132.0	1
4	3	21	M	Filler	133	7	While	1	1096.0	NA
4	3	21	M	Filler	133	7	the	2	432.0	NA
4	3	21	M	Filler	133	7	lawyers	3	233.0	NA
4	3	21	M	Filler	133	7	fought	4	202.0	NA
4	3	21	M	Filler	133	7	the	5	283.0	NA
4	3	21	M	Filler	133	7	ruling	6	266.0	NA
4	3	21	M	Filler	133	7	the	7	318.0	NA
4	3	21	M	Filler	133	7	judge	8	316.0	NA
4	3	21	M	Filler	133	7	announced	9	383.0	NA
4	3	21	M	Filler	133	7	the	10	349.0	NA
4	3	21	M	Filler	133	7	decision.	11	352.0	NA
4	3	21	M	Question	133	7	NA	NA	1567.0	1
5	3	21	M	Filler	89	5	Jim	1	444.0	NA
5	3	21	M	Filler	89	5	watered	2	533.0	NA
5	3	21	M	Filler	89	5	the	3	235.0	NA
5	3	21	M	Filler	89	5	tropical	4	216.0	NA
5	3	21	M	Filler	89	5	plants	5	351.0	NA
5	3	21	M	Filler	89	5	of	6	316.0	NA
5	3	21	M	Filler	89	5	his	7	301.0	NA
5	3	21	M	Filler	89	5	neighbor	8	300.0	NA
5	3	21	M	Filler	89	5	because	9	283.0	NA
5	3	21	M	Filler	89	5	she	10	300.0	NA
5	3	21	M	Filler	89	5	had	11	250.0	NA
5	3	21	M	Filler	89	5	gone	12	284.0	NA
5	3	21	M	Filler	89	5	out	13	333.0	NA
5	3	21	M	Filler	89	5	of	14	368.0	NA
5	3	21	M	Filler	89	5	town	15	299.0	NA
5	3	21	M	Filler	89	5	for	16	467.0	NA
5	3	21	M	Filler	89	5	a	17	316.0	NA
5	3	21	M	Filler	89	5	few	18	200.0	NA
5	3	21	M	Filler	89	5	days.	19	368.0	NA
5	3	21	M	Question	89	5	NA	NA	1267.0	1
6	3	21	M	swets	22	3	The	1	827.0	NA
6	3	21	M	swets	22	3	niece	2	302.0	NA
6	3	21	M	swets	22	3	of	3	248.0	NA
6	3	21	M	swets	22	3	the	4	251.0	NA
6	3	21	M	swets	22	3	commander	5	233.0	NA
6	3	21	M	swets	22	3	who	6	302.0	NA
6	3	21	M	swets	22	3	calmed	7	233.0	NA
6	3	21	M	swets	22	3	herself	8	284.0	NA
6	3	21	M	swets	22	3	after	9	351.0	NA
6	3	21	M	swets	22	3	the	10	282.0	NA
6	3	21	M	swets	22	3	tragedy	11	316.0	NA
6	3	21	M	swets	22	3	was	12	334.0	NA
6	3	21	M	swets	22	3	waiting	13	283.0	NA
6	3	21	M	swets	22	3	for	14	285.0	NA
6	3	21	M	swets	22	3	the	15	333.0	NA
6	3	21	M	swets	22	3	doctor.	16	283.0	NA
6	3	21	M	Question	22	3	NA	NA	1266.0	1
7	3	21	M	Filler	44	4	The	1	295.0	NA
7	3	21	M	Filler	44	4	solicitor	2	234.0	NA
7	3	21	M	Filler	44	4	wearing	3	300.0	NA
7	3	21	M	Filler	44	4	the	4	282.0	NA
7	3	21	M	Filler	44	4	new	5	301.0	NA
7	3	21	M	Filler	44	4	tuxedo	6	332.0	NA
7	3	21	M	Filler	44	4	bothered	7	335.0	NA
7	3	21	M	Filler	44	4	a	8	300.0	NA
7	3	21	M	Filler	44	4	man	9	299.0	NA
7	3	21	M	Filler	44	4	from	10	302.0	NA
7	3	21	M	Filler	44	4	New	11	316.0	NA
7	3	21	M	Filler	44	4	York.	12	317.0	NA
7	3	21	M	Question	44	4	NA	NA	1532.0	1
8	3	21	M	Filler	61	4	The	1	444.0	NA
8	3	21	M	Filler	61	4	lemon	2	235.0	NA
8	3	21	M	Filler	61	4	squirted	3	283.0	NA
8	3	21	M	Filler	61	4	into	4	267.0	NA
8	3	21	M	Filler	61	4	the	5	300.0	NA
8	3	21	M	Filler	61	4	debutante's	6	316.0	NA
8	3	21	M	Filler	61	4	eye	7	368.0	NA
8	3	21	M	Filler	61	4	as	8	316.0	NA
8	3	21	M	Filler	61	4	she	9	233.0	NA
8	3	21	M	Filler	61	4	tried	10	251.0	NA
8	3	21	M	Filler	61	4	to	11	300.0	NA
8	3	21	M	Filler	61	4	impress	12	283.0	NA
8	3	21	M	Filler	61	4	her	13	317.0	NA
8	3	21	M	Filler	61	4	mother's	14	318.0	NA
8	3	21	M	Filler	61	4	society	15	334.0	NA
8	3	21	M	Filler	61	4	friends.	16	349.0	NA
8	3	21	M	Question	61	4	NA	NA	700.0	1
9	3	21	M	swets	23	1	The	1	295.0	NA
9	3	21	M	swets	23	1	mother	2	217.0	NA
9	3	21	M	swets	23	1	of	3	249.0	NA
9	3	21	M	swets	23	1	the	4	233.0	NA
9	3	21	M	swets	23	1	ballerina	5	250.0	NA
9	3	21	M	swets	23	1	who	6	251.0	NA
9	3	21	M	swets	23	1	found	7	234.0	NA
9	3	21	M	swets	23	1	herself	8	349.0	NA
9	3	21	M	swets	23	1	in	9	234.0	NA
9	3	21	M	swets	23	1	a	10	251.0	NA
9	3	21	M	swets	23	1	lot	11	183.0	NA
9	3	21	M	swets	23	1	of	12	399.0	NA
9	3	21	M	swets	23	1	trouble	13	166.0	NA
9	3	21	M	swets	23	1	phoned	14	367.0	NA
9	3	21	M	swets	23	1	the	15	300.0	NA
9	3	21	M	swets	23	1	police.	16	301.0	NA
9	3	21	M	Question	23	1	NA	NA	1801.0	1
10	3	21	M	Filler	141	7	The	1	329.0	NA
10	3	21	M	Filler	141	7	nurse	2	266.0	NA
10	3	21	M	Filler	141	7	and	3	299.0	NA
10	3	21	M	Filler	141	7	custodian	4	201.0	NA
10	3	21	M	Filler	141	7	chatted	5	383.0	NA
10	3	21	M	Filler	141	7	during	6	317.0	NA
10	3	21	M	Filler	141	7	their	7	318.0	NA
10	3	21	M	Filler	141	7	break.	8	217.0	NA
10	3	21	M	Question	141	7	NA	NA	1133.0	1
11	3	21	M	Filler	66	4	The	1	428.0	NA
11	3	21	M	Filler	66	4	rare	2	484.0	NA
11	3	21	M	Filler	66	4	and	3	400.0	NA
11	3	21	M	Filler	66	4	exotic	4	267.0	NA
11	3	21	M	Filler	66	4	monkey	5	284.0	NA
11	3	21	M	Filler	66	4	was	6	316.0	NA
11	3	21	M	Filler	66	4	the	7	268.0	NA
11	3	21	M	Filler	66	4	center	8	266.0	NA
11	3	21	M	Filler	66	4	of	9	283.0	NA
11	3	21	M	Filler	66	4	attention	10	217.0	NA
11	3	21	M	Filler	66	4	at	11	467.0	NA
11	3	21	M	Filler	66	4	the	12	216.0	NA
11	3	21	M	Filler	66	4	zoo.	13	266.0	NA
11	3	21	M	Question	66	4	NA	NA	1534.0	1
12	3	21	M	swets	19	3	The	1	661.0	NA
12	3	21	M	swets	19	3	mistress	2	434.0	NA
12	3	21	M	swets	19	3	of	3	250.0	NA
12	3	21	M	swets	19	3	the	4	267.0	NA
12	3	21	M	swets	19	3	actor	5	283.0	NA
12	3	21	M	swets	19	3	who	6	232.0	NA
12	3	21	M	swets	19	3	hated	7	250.0	NA
12	3	21	M	swets	19	3	herself	8	270.0	NA
12	3	21	M	swets	19	3	for	9	365.0	NA
12	3	21	M	swets	19	3	lying	10	350.0	NA
12	3	21	M	swets	19	3	left	11	400.0	NA
12	3	21	M	swets	19	3	town	12	385.0	NA
12	3	21	M	swets	19	3	in	13	366.0	NA
12	3	21	M	swets	19	3	a	14	333.0	NA
12	3	21	M	swets	19	3	hurry.	15	366.0	NA
12	3	21	M	Question	19	3	NA	NA	1684.0	1
13	3	21	M	Filler	59	4	The	1	395.0	NA
13	3	21	M	Filler	59	4	conductor	2	199.0	NA
13	3	21	M	Filler	59	4	of	3	268.0	NA
13	3	21	M	Filler	59	4	the	4	232.0	NA
13	3	21	M	Filler	59	4	orchestra	5	184.0	NA
13	3	21	M	Filler	59	4	with	6	250.0	NA
13	3	21	M	Filler	59	4	the	7	217.0	NA
13	3	21	M	Filler	59	4	bald	8	266.0	NA
13	3	21	M	Filler	59	4	head	9	268.0	NA
13	3	21	M	Filler	59	4	plays	10	267.0	NA
13	3	21	M	Filler	59	4	excellently.	11	300.0	NA
13	3	21	M	Question	59	4	NA	NA	900.0	1
14	3	21	M	Filler	111	6	While	1	378.0	NA
14	3	21	M	Filler	111	6	the	2	267.0	NA
14	3	21	M	Filler	111	6	clown	3	250.0	NA
14	3	21	M	Filler	111	6	juggled	4	249.0	NA
14	3	21	M	Filler	111	6	the	5	369.0	NA
14	3	21	M	Filler	111	6	balls	6	284.0	NA
14	3	21	M	Filler	111	6	fell	7	399.0	NA
14	3	21	M	Filler	111	6	to	8	300.0	NA
14	3	21	M	Filler	111	6	the	9	267.0	NA
14	3	21	M	Filler	111	6	ground.	10	317.0	NA
14	3	21	M	Question	111	6	NA	NA	766.0	1
15	3	21	M	Filler	143	7	The	1	1146.0	NA
15	3	21	M	Filler	143	7	lawyer	2	283.0	NA
15	3	21	M	Filler	143	7	and	3	266.0	NA
15	3	21	M	Filler	143	7	defendant	4	267.0	NA
15	3	21	M	Filler	143	7	whispered	5	284.0	NA
15	3	21	M	Filler	143	7	furiously	6	299.0	NA
15	3	21	M	Filler	143	7	during	7	284.0	NA
15	3	21	M	Filler	143	7	the	8	267.0	NA
15	3	21	M	Filler	143	7	recess.	9	282.0	NA
15	3	21	M	Question	143	7	NA	NA	1401.0	1
16	3	21	M	Filler	126	6	The	1	428.0	NA
16	3	21	M	Filler	126	6	boxes	2	166.0	NA
16	3	21	M	Filler	126	6	and	3	285.0	NA
16	3	21	M	Filler	126	6	hangers	4	249.0	NA
16	3	21	M	Filler	126	6	had	5	283.0	NA
16	3	21	M	Filler	126	6	been	6	267.0	NA
16	3	21	M	Filler	126	6	stuffed	7	250.0	NA
16	3	21	M	Filler	126	6	in	8	268.0	NA
16	3	21	M	Filler	126	6	the	9	249.0	NA
16	3	21	M	Filler	126	6	closet.	10	301.0	NA
16	3	21	M	Question	126	6	NA	NA	1132.0	1
17	3	21	M	Filler	103	5	The	1	444.0	NA
17	3	21	M	Filler	103	5	desperate	2	167.0	NA
17	3	21	M	Filler	103	5	thief	3	301.0	NA
17	3	21	M	Filler	103	5	ran	4	266.0	NA
17	3	21	M	Filler	103	5	over	5	317.0	NA
17	3	21	M	Filler	103	5	a	6	250.0	NA
17	3	21	M	Filler	103	5	child	7	318.0	NA
17	3	21	M	Filler	103	5	in	8	266.0	NA
17	3	21	M	Filler	103	5	an	9	218.0	NA
17	3	21	M	Filler	103	5	attempt	10	215.0	NA
17	3	21	M	Filler	103	5	to	11	367.0	NA
17	3	21	M	Filler	103	5	dodge	12	167.0	NA
17	3	21	M	Filler	103	5	the	13	351.0	NA
17	3	21	M	Filler	103	5	cops.	14	182.0	NA
17	3	21	M	Question	103	5	NA	NA	1167.0	1
18	3	21	M	Filler	138	7	While	1	362.0	NA
18	3	21	M	Filler	138	7	Pedro	2	215.0	NA
18	3	21	M	Filler	138	7	was	3	302.0	NA
18	3	21	M	Filler	138	7	swimming	4	232.0	NA
18	3	21	M	Filler	138	7	the	5	266.0	NA
18	3	21	M	Filler	138	7	lifeguard	6	268.0	NA
18	3	21	M	Filler	138	7	sat	7	217.0	NA
18	3	21	M	Filler	138	7	in	8	183.0	NA
18	3	21	M	Filler	138	7	his	9	282.0	NA
18	3	21	M	Filler	138	7	chair.	10	200.0	NA
18	3	21	M	Question	138	7	NA	NA	1301.0	1
19	3	21	M	Filler	142	7	The	1	446.0	NA
19	3	21	M	Filler	142	7	cats	2	199.0	NA
19	3	21	M	Filler	142	7	and	3	267.0	NA
19	3	21	M	Filler	142	7	dogs	4	250.0	NA
19	3	21	M	Filler	142	7	glared	5	349.0	NA
19	3	21	M	Filler	142	7	at	6	267.0	NA
19	3	21	M	Filler	142	7	each	7	185.0	NA
19	3	21	M	Filler	142	7	other	8	500.0	NA
19	3	21	M	Filler	142	7	warily.	9	350.0	NA
19	3	21	M	Question	142	7	NA	NA	1699.0	1
20	3	21	M	Filler	98	5	The	1	379.0	NA
20	3	21	M	Filler	98	5	husband	2	151.0	NA
20	3	21	M	Filler	98	5	of	3	282.0	NA
20	3	21	M	Filler	98	5	the	4	184.0	NA
20	3	21	M	Filler	98	5	bestselling	5	217.0	NA
20	3	21	M	Filler	98	5	novelist	6	317.0	NA
20	3	21	M	Filler	98	5	was	7	250.0	NA
20	3	21	M	Filler	98	5	into	8	249.0	NA
20	3	21	M	Filler	98	5	collecting	9	201.0	NA
20	3	21	M	Filler	98	5	antiques.	10	301.0	NA
20	3	21	M	Question	98	5	NA	NA	2033.0	1
21	3	21	M	swets	28	3	The	1	610.0	NA
21	3	21	M	swets	28	3	nephew	2	235.0	NA
21	3	21	M	swets	28	3	of	3	266.0	NA
21	3	21	M	swets	28	3	the	4	234.0	NA
21	3	21	M	swets	28	3	baroness	5	199.0	NA
21	3	21	M	swets	28	3	who	6	351.0	NA
21	3	21	M	swets	28	3	admired	7	232.0	NA
21	3	21	M	swets	28	3	himself	8	300.0	NA
21	3	21	M	swets	28	3	an	9	301.0	NA
21	3	21	M	swets	28	3	inordinate	10	368.0	NA
21	3	21	M	swets	28	3	amount	11	266.0	NA
21	3	21	M	swets	28	3	enjoyed	12	267.0	NA
21	3	21	M	swets	28	3	all	13	282.0	NA
21	3	21	M	swets	28	3	the	14	267.0	NA
21	3	21	M	swets	28	3	attention.	15	168.0	NA
21	3	21	M	Question	28	3	NA	NA	1632.0	1
22	3	21	M	Filler	88	5	The	1	1112.0	NA
22	3	21	M	Filler	88	5	woman's	2	216.0	NA
22	3	21	M	Filler	88	5	posture	3	250.0	NA
22	3	21	M	Filler	88	5	began	4	266.0	NA
22	3	21	M	Filler	88	5	to	5	185.0	NA
22	3	21	M	Filler	88	5	go	6	215.0	NA
22	3	21	M	Filler	88	5	bad	7	234.0	NA
22	3	21	M	Filler	88	5	because	8	301.0	NA
22	3	21	M	Filler	88	5	of	9	167.0	NA
22	3	21	M	Filler	88	5	her	10	198.0	NA
22	3	21	M	Filler	88	5	constant	11	251.0	NA
22	3	21	M	Filler	88	5	slumping.	12	350.0	NA
22	3	21	M	Question	88	5	NA	NA	1267.0	1
23	3	21	M	swets	4	3	The	1	345.0	NA
23	3	21	M	swets	4	3	father	2	150.0	NA
23	3	21	M	swets	4	3	of	3	217.0	NA
23	3	21	M	swets	4	3	the	4	200.0	NA
23	3	21	M	swets	4	3	bride	5	284.0	NA
23	3	21	M	swets	4	3	who	6	166.0	NA
23	3	21	M	swets	4	3	embarrassed	7	249.0	NA
23	3	21	M	swets	4	3	himself	8	250.0	NA
23	3	21	M	swets	4	3	at	9	234.0	NA
23	3	21	M	swets	4	3	the	10	218.0	NA
23	3	21	M	swets	4	3	reception	11	199.0	NA
23	3	21	M	swets	4	3	was	12	316.0	NA
23	3	21	M	swets	4	3	complaining	13	150.0	NA
23	3	21	M	swets	4	3	to	14	333.0	NA
23	3	21	M	swets	4	3	the	15	185.0	NA
23	3	21	M	swets	4	3	priest.	16	182.0	NA
23	3	21	M	Question	4	3	NA	NA	1134.0	1
24	3	21	M	Filler	102	5	The	1	328.0	NA
24	3	21	M	Filler	102	5	old	2	199.0	NA
24	3	21	M	Filler	102	5	man	3	200.0	NA
24	3	21	M	Filler	102	5	appeared	4	252.0	NA
24	3	21	M	Filler	102	5	to	5	249.0	NA
24	3	21	M	Filler	102	5	be	6	300.0	NA
24	3	21	M	Filler	102	5	upset	7	233.0	NA
24	3	21	M	Filler	102	5	by	8	201.0	NA
24	3	21	M	Filler	102	5	the	9	299.0	NA
24	3	21	M	Filler	102	5	teenager's	10	284.0	NA
24	3	21	M	Filler	102	5	ignorant	11	301.0	NA
24	3	21	M	Filler	102	5	remark.	12	316.0	NA
24	3	21	M	Question	102	5	NA	NA	933.0	1
25	3	21	M	Filler	54	4	The	1	546.0	NA
25	3	21	M	Filler	54	4	video	2	99.0	NA
25	3	21	M	Filler	54	4	screen	3	201.0	NA
25	3	21	M	Filler	54	4	of	4	182.0	NA
25	3	21	M	Filler	54	4	the	5	233.0	NA
25	3	21	M	Filler	54	4	monitor	6	185.0	NA
25	3	21	M	Filler	54	4	made	7	201.0	NA
25	3	21	M	Filler	54	4	strange	8	249.0	NA
25	3	21	M	Filler	54	4	noises	9	218.0	NA
25	3	21	M	Filler	54	4	and	10	332.0	NA
25	3	21	M	Filler	54	4	started	11	200.0	NA
25	3	21	M	Filler	54	4	emitting	12	217.0	NA
25	3	21	M	Filler	54	4	strange	13	283.0	NA
25	3	21	M	Filler	54	4	flashes.	14	217.0	NA
25	3	21	M	Question	54	4	NA	NA	1300.0	1
26	3	21	M	Filler	110	6	While	1	362.0	NA
26	3	21	M	Filler	110	6	the	2	182.0	NA
26	3	21	M	Filler	110	6	lawyer	3	119.0	NA
26	3	21	M	Filler	110	6	was	4	233.0	NA
26	3	21	M	Filler	110	6	reading	5	231.0	NA
26	3	21	M	Filler	110	6	the	6	284.0	NA
26	3	21	M	Filler	110	6	will	7	217.0	NA
26	3	21	M	Filler	110	6	the	8	234.0	NA
26	3	21	M	Filler	110	6	contract	9	283.0	NA
26	3	21	M	Filler	110	6	remained	10	250.0	NA
26	3	21	M	Filler	110	6	on	11	184.0	NA
26	3	21	M	Filler	110	6	the	12	350.0	NA
26	3	21	M	Filler	110	6	desk.	13	200.0	NA
26	3	21	M	Question	110	6	NA	NA	935.0	1
27	3	21	M	Filler	42	4	After	1	328.0	NA
27	3	21	M	Filler	42	4	dinner	2	167.0	NA
27	3	21	M	Filler	42	4	the	3	134.0	NA
27	3	21	M	Filler	42	4	children	4	233.0	NA
27	3	21	M	Filler	42	4	gathered	5	250.0	NA
27	3	21	M	Filler	42	4	in	6	233.0	NA
27	3	21	M	Filler	42	4	a	7	250.0	NA
27	3	21	M	Filler	42	4	circle	8	217.0	NA
27	3	21	M	Filler	42	4	to	9	202.0	NA
27	3	21	M	Filler	42	4	listen	10	216.0	NA
27	3	21	M	Filler	42	4	to	11	201.0	NA
27	3	21	M	Filler	42	4	their	12	248.0	NA
27	3	21	M	Filler	42	4	grandmother's	13	234.0	NA
27	3	21	M	Filler	42	4	stories	14	317.0	NA
27	3	21	M	Filler	42	4	about	15	366.0	NA
27	3	21	M	Filler	42	4	the	16	166.0	NA
27	3	21	M	Filler	42	4	good	17	202.0	NA
27	3	21	M	Filler	42	4	old	18	383.0	NA
27	3	21	M	Filler	42	4	days.	19	566.0	NA
27	3	21	M	Question	42	4	NA	NA	834.0	1
28	3	21	M	Filler	121	6	The	1	344.0	NA
28	3	21	M	Filler	121	6	ecologist	2	184.0	NA
28	3	21	M	Filler	121	6	wondered	3	99.0	NA
28	3	21	M	Filler	121	6	which	4	250.0	NA
28	3	21	M	Filler	121	6	plants	5	168.0	NA
28	3	21	M	Filler	121	6	the	6	200.0	NA
28	3	21	M	Filler	121	6	scientist	7	150.0	NA
28	3	21	M	Filler	121	6	grew	8	182.0	NA
28	3	21	M	Filler	121	6	but	9	184.0	NA
28	3	21	M	Filler	121	6	didn't	10	134.0	NA
28	3	21	M	Filler	121	6	modify	11	268.0	NA
28	3	21	M	Filler	121	6	the	12	165.0	NA
28	3	21	M	Filler	121	6	seeds	13	184.0	NA
28	3	21	M	Filler	121	6	of	14	334.0	NA
28	3	21	M	Filler	121	6	in	15	100.0	NA
28	3	21	M	Filler	121	6	the	16	300.0	NA
28	3	21	M	Filler	121	6	lab.	17	399.0	NA
28	3	21	M	Question	121	6	NA	NA	1635.0	1
29	3	21	M	swets	30	2	The	1	412.0	NA
29	3	21	M	swets	30	2	bodyguard	2	116.0	NA
29	3	21	M	swets	30	2	of	3	168.0	NA
29	3	21	M	swets	30	2	the	4	250.0	NA
29	3	21	M	swets	30	2	baroness	5	216.0	NA
29	3	21	M	swets	30	2	who	6	150.0	NA
29	3	21	M	swets	30	2	prepared	7	234.0	NA
29	3	21	M	swets	30	2	herself	8	216.0	NA
29	3	21	M	swets	30	2	very	9	184.0	NA
29	3	21	M	swets	30	2	thoroughly	10	266.0	NA
29	3	21	M	swets	30	2	came	11	167.0	NA
29	3	21	M	swets	30	2	from	12	234.0	NA
29	3	21	M	swets	30	2	the	13	199.0	NA
29	3	21	M	swets	30	2	south.	14	251.0	NA
29	3	21	M	Question	30	2	NA	NA	1135.0	1
30	3	21	M	Filler	76	5	After	1	411.0	NA
30	3	21	M	Filler	76	5	fifty	2	85.0	NA
30	3	21	M	Filler	76	5	years	3	250.0	NA
30	3	21	M	Filler	76	5	of	4	183.0	NA
30	3	21	M	Filler	76	5	marriage	5	551.0	NA
30	3	21	M	Filler	76	5	the	6	216.0	NA
30	3	21	M	Filler	76	5	old	7	166.0	NA
30	3	21	M	Filler	76	5	couple	8	150.0	NA
30	3	21	M	Filler	76	5	still	9	200.0	NA
30	3	21	M	Filler	76	5	felt	10	201.0	NA
30	3	21	M	Filler	76	5	the	11	184.0	NA
30	3	21	M	Filler	76	5	same	12	216.0	NA
30	3	21	M	Filler	76	5	about	13	150.0	NA
30	3	21	M	Filler	76	5	each	14	267.0	NA
30	3	21	M	Filler	76	5	other	15	182.0	NA
30	3	21	M	Filler	76	5	as	16	301.0	NA
30	3	21	M	Filler	76	5	they	17	199.0	NA
30	3	21	M	Filler	76	5	had	18	168.0	NA
30	3	21	M	Filler	76	5	on	19	132.0	NA
30	3	21	M	Filler	76	5	their	20	217.0	NA
30	3	21	M	Filler	76	5	wedding	21	167.0	NA
30	3	21	M	Filler	76	5	day.	22	434.0	NA
30	3	21	M	Question	76	5	NA	NA	1099.0	1
31	3	21	M	Filler	116	6	As	1	295.0	NA
31	3	21	M	Filler	116	6	the	2	117.0	NA
31	3	21	M	Filler	116	6	survivors	3	182.0	NA
31	3	21	M	Filler	116	6	were	4	168.0	NA
31	3	21	M	Filler	116	6	embracing	5	233.0	NA
31	3	21	M	Filler	116	6	the	6	334.0	NA
31	3	21	M	Filler	116	6	firefighter	7	149.0	NA
31	3	21	M	Filler	116	6	coughed	8	217.0	NA
31	3	21	M	Filler	116	6	violently.	9	317.0	NA
31	3	21	M	Question	116	6	NA	NA	1735.0	1
32	3	21	M	swets	31	3	The	1	394.0	NA
32	3	21	M	swets	31	3	aunt	2	100.0	NA
32	3	21	M	swets	31	3	of	3	249.0	NA
32	3	21	M	swets	31	3	the	4	201.0	NA
32	3	21	M	swets	31	3	milkman	5	217.0	NA
32	3	21	M	swets	31	3	who	6	118.0	NA
32	3	21	M	swets	31	3	had	7	233.0	NA
32	3	21	M	swets	31	3	to	8	200.0	NA
32	3	21	M	swets	31	3	support	9	168.0	NA
32	3	21	M	swets	31	3	herself	10	216.0	NA
32	3	21	M	swets	31	3	with	11	199.0	NA
32	3	21	M	swets	31	3	a	12	235.0	NA
32	3	21	M	swets	31	3	low	13	200.0	NA
32	3	21	M	swets	31	3	income	14	182.0	NA
32	3	21	M	swets	31	3	liked	15	267.0	NA
32	3	21	M	swets	31	3	to	16	317.0	NA
32	3	21	M	swets	31	3	fish.	17	182.0	NA
32	3	21	M	Question	31	3	NA	NA	1069.0	1
33	3	21	M	Filler	64	4	Because	1	327.0	NA
33	3	21	M	Filler	64	4	a	2	185.0	NA
33	3	21	M	Filler	64	4	fire	3	167.0	NA
33	3	21	M	Filler	64	4	alarm	4	149.0	NA
33	3	21	M	Filler	64	4	interrupted	5	167.0	NA
33	3	21	M	Filler	64	4	the	6	217.0	NA
33	3	21	M	Filler	64	4	exam	7	233.0	NA
33	3	21	M	Filler	64	4	the	8	332.0	NA
33	3	21	M	Filler	64	4	scores	9	168.0	NA
33	3	21	M	Filler	64	4	were	10	117.0	NA
33	3	21	M	Filler	64	4	disqualified.	11	266.0	NA
33	3	21	M	Question	64	4	NA	NA	1084.0	1
34	3	21	M	Filler	137	7	When	1	529.0	NA
34	3	21	M	Filler	137	7	Leslie	2	149.0	NA
34	3	21	M	Filler	137	7	was	3	317.0	NA
34	3	21	M	Filler	137	7	sneezing	4	267.0	NA
34	3	21	M	Filler	137	7	her	5	333.0	NA
34	3	21	M	Filler	137	7	friends	6	216.0	NA
34	3	21	M	Filler	137	7	laughed	7	218.0	NA
34	3	21	M	Filler	137	7	at	8	234.0	NA
34	3	21	M	Filler	137	7	her.	9	201.0	NA
34	3	21	M	Question	137	7	NA	NA	798.0	1
35	3	21	M	Filler	130	7	While	1	312.0	NA
35	3	21	M	Filler	130	7	Margo	2	166.0	NA
35	3	21	M	Filler	130	7	bathed	3	400.0	NA
35	3	21	M	Filler	130	7	the	4	233.0	NA
35	3	21	M	Filler	130	7	dog	5	201.0	NA
35	3	21	M	Filler	130	7	barked	6	285.0	NA
35	3	21	M	Filler	130	7	in	7	165.0	NA
35	3	21	M	Filler	130	7	the	8	268.0	NA
35	3	21	M	Filler	130	7	yard.	9	184.0	NA
35	3	21	M	Question	130	7	NA	NA	965.0	1
36	3	21	M	Filler	49	4	The	1	412.0	NA
36	3	21	M	Filler	49	4	construction	2	132.0	NA
36	3	21	M	Filler	49	4	worker	3	184.0	NA
36	3	21	M	Filler	49	4	sued	4	216.0	NA
36	3	21	M	Filler	49	4	the	5	185.0	NA
36	3	21	M	Filler	49	4	son	6	199.0	NA
36	3	21	M	Filler	49	4	of	7	333.0	NA
36	3	21	M	Filler	49	4	that	8	233.0	NA
36	3	21	M	Filler	49	4	greedy	9	183.0	NA
36	3	21	M	Filler	49	4	banker.	10	185.0	NA
36	3	21	M	Question	49	4	NA	NA	1233.0	1
37	3	21	M	Filler	129	7	While	1	361.0	NA
37	3	21	M	Filler	129	7	Scott	2	117.0	NA
37	3	21	M	Filler	129	7	vacuumed	3	168.0	NA
37	3	21	M	Filler	129	7	the	4	181.0	NA
37	3	21	M	Filler	129	7	carpet	5	234.0	NA
37	3	21	M	Filler	129	7	the	6	200.0	NA
37	3	21	M	Filler	129	7	drapes	7	134.0	NA
37	3	21	M	Filler	129	7	flapped	8	217.0	NA
37	3	21	M	Filler	129	7	in	9	183.0	NA
37	3	21	M	Filler	129	7	the	10	217.0	NA
37	3	21	M	Filler	129	7	breeze.	11	166.0	NA
37	3	21	M	Question	129	7	NA	NA	1301.0	1
38	3	21	M	Filler	134	7	As	1	296.0	NA
38	3	21	M	Filler	134	7	Shawnie	2	182.0	NA
38	3	21	M	Filler	134	7	and	3	150.0	NA
38	3	21	M	Filler	134	7	Nick	4	202.0	NA
38	3	21	M	Filler	134	7	were	5	215.0	NA
38	3	21	M	Filler	134	7	embracing	6	367.0	NA
38	3	21	M	Filler	134	7	the	7	150.0	NA
38	3	21	M	Filler	134	7	doctor	8	151.0	NA
38	3	21	M	Filler	134	7	the	9	132.0	NA
38	3	21	M	Filler	134	7	visitor	10	234.0	NA
38	3	21	M	Filler	134	7	entered	11	150.0	NA
38	3	21	M	Filler	134	7	the	12	300.0	NA
38	3	21	M	Filler	134	7	room.	13	250.0	NA
38	3	21	M	Question	134	7	NA	NA	1200.0	1
39	3	21	M	Filler	62	4	After	1	313.0	NA
39	3	21	M	Filler	62	4	much	2	216.0	NA
39	3	21	M	Filler	62	4	deliberation	3	133.0	NA
39	3	21	M	Filler	62	4	the	4	183.0	NA
39	3	21	M	Filler	62	4	jury	5	184.0	NA
39	3	21	M	Filler	62	4	found	6	116.0	NA
39	3	21	M	Filler	62	4	the	7	167.0	NA
39	3	21	M	Filler	62	4	defendant	8	151.0	NA
39	3	21	M	Filler	62	4	not	9	233.0	NA
39	3	21	M	Filler	62	4	guilty.	10	200.0	NA
39	3	21	M	Question	62	4	NA	NA	1316.0	1
40	3	21	M	swets	35	1	The	1	311.0	NA
40	3	21	M	swets	35	1	landlord	2	185.0	NA
40	3	21	M	swets	35	1	of	3	133.0	NA
40	3	21	M	swets	35	1	the	4	299.0	NA
40	3	21	M	swets	35	1	businessman	5	200.0	NA
40	3	21	M	swets	35	1	who	6	285.0	NA
40	3	21	M	swets	35	1	had	7	150.0	NA
40	3	21	M	swets	35	1	locked	8	216.0	NA
40	3	21	M	swets	35	1	himself	9	183.0	NA
40	3	21	M	swets	35	1	in	10	233.0	NA
40	3	21	M	swets	35	1	the	11	235.0	NA
40	3	21	M	swets	35	1	office	12	182.0	NA
40	3	21	M	swets	35	1	received	13	234.0	NA
40	3	21	M	swets	35	1	a	14	267.0	NA
40	3	21	M	swets	35	1	phone	15	215.0	NA
40	3	21	M	swets	35	1	call.	16	469.0	NA
40	3	21	M	Question	35	1	NA	NA	2466.0	1
41	3	21	M	Filler	109	6	While	1	462.0	NA
41	3	21	M	Filler	109	6	the	2	167.0	NA
41	3	21	M	Filler	109	6	farmer	3	184.0	NA
41	3	21	M	Filler	109	6	steered	4	182.0	NA
41	3	21	M	Filler	109	6	the	5	184.0	NA
41	3	21	M	Filler	109	6	truck	6	218.0	NA
41	3	21	M	Filler	109	6	the	7	250.0	NA
41	3	21	M	Filler	109	6	tractor	8	214.0	NA
41	3	21	M	Filler	109	6	pulled	9	203.0	NA
41	3	21	M	Filler	109	6	the	10	183.0	NA
41	3	21	M	Filler	109	6	plough.	11	250.0	NA
41	3	21	M	Question	109	6	NA	NA	1099.0	1
42	3	21	M	swets	7	3	The	1	295.0	NA
42	3	21	M	swets	7	3	nephew	2	132.0	NA
42	3	21	M	swets	7	3	of	3	233.0	NA
42	3	21	M	swets	7	3	the	4	167.0	NA
42	3	21	M	swets	7	3	waitress	5	169.0	NA
42	3	21	M	swets	7	3	who	6	232.0	NA
42	3	21	M	swets	7	3	hurt	7	199.0	NA
42	3	21	M	swets	7	3	himself	8	167.0	NA
42	3	21	M	swets	7	3	on	9	234.0	NA
42	3	21	M	swets	7	3	the	10	183.0	NA
42	3	21	M	swets	7	3	bicycle	11	217.0	NA
42	3	21	M	swets	7	3	was	12	166.0	NA
42	3	21	M	swets	7	3	angry	13	168.0	NA
42	3	21	M	swets	7	3	about	14	366.0	NA
42	3	21	M	swets	7	3	the	15	201.0	NA
42	3	21	M	swets	7	3	incident.	16	232.0	NA
42	3	21	M	Question	7	3	NA	NA	867.0	1
43	3	21	M	Filler	85	5	The	1	244.0	NA
43	3	21	M	Filler	85	5	college	2	117.0	NA
43	3	21	M	Filler	85	5	students	3	100.0	NA
43	3	21	M	Filler	85	5	were	4	135.0	NA
43	3	21	M	Filler	85	5	upset	5	183.0	NA
43	3	21	M	Filler	85	5	that	6	149.0	NA
43	3	21	M	Filler	85	5	they	7	166.0	NA
43	3	21	M	Filler	85	5	had	8	118.0	NA
43	3	21	M	Filler	85	5	an	9	216.0	NA
43	3	21	M	Filler	85	5	exam	10	166.0	NA
43	3	21	M	Filler	85	5	the	11	151.0	NA
43	3	21	M	Filler	85	5	next	12	250.0	NA
43	3	21	M	Filler	85	5	day.	13	133.0	NA
43	3	21	M	Question	85	5	NA	NA	1034.0	1
44	3	21	M	Filler	128	7	While	1	444.0	NA
44	3	21	M	Filler	128	7	the	2	101.0	NA
44	3	21	M	Filler	128	7	man	3	148.0	NA
44	3	21	M	Filler	128	7	was	4	118.0	NA
44	3	21	M	Filler	128	7	walking	5	166.0	NA
44	3	21	M	Filler	128	7	the	6	300.0	NA
44	3	21	M	Filler	128	7	poodle	7	134.0	NA
44	3	21	M	Filler	128	7	barked	8	134.0	NA
44	3	21	M	Filler	128	7	loudly.	9	300.0	NA
44	3	21	M	Question	128	7	NA	NA	933.0	1
45	3	21	M	Filler	56	4	The	1	328.0	NA
45	3	21	M	Filler	56	4	actor	2	118.0	NA
45	3	21	M	Filler	56	4	said	3	115.0	NA
45	3	21	M	Filler	56	4	the	4	68.0	NA
45	3	21	M	Filler	56	4	audiences	5	116.0	NA
45	3	21	M	Filler	56	4	believed	6	100.0	NA
45	3	21	M	Filler	56	4	the	7	117.0	NA
45	3	21	M	Filler	56	4	nasty	8	133.0	NA
45	3	21	M	Filler	56	4	remarks	9	67.0	NA
45	3	21	M	Filler	56	4	made	10	99.0	NA
45	3	21	M	Filler	56	4	by	11	268.0	NA
45	3	21	M	Filler	56	4	the	12	151.0	NA
45	3	21	M	Filler	56	4	film	13	150.0	NA
45	3	21	M	Filler	56	4	critic.	14	184.0	NA
45	3	21	M	Question	56	4	NA	NA	1465.0	1
46	3	21	M	swets	15	2	The	1	330.0	NA
46	3	21	M	swets	15	2	husband	2	132.0	NA
46	3	21	M	swets	15	2	of	3	84.0	NA
46	3	21	M	swets	15	2	the	4	66.0	NA
46	3	21	M	swets	15	2	beautician	5	100.0	NA
46	3	21	M	swets	15	2	who	6	117.0	NA
46	3	21	M	swets	15	2	cut	7	68.0	NA
46	3	21	M	swets	15	2	herself	8	132.0	NA
46	3	21	M	swets	15	2	on	9	84.0	NA
46	3	21	M	swets	15	2	the	10	149.0	NA
46	3	21	M	swets	15	2	broken	11	67.0	NA
46	3	21	M	swets	15	2	glass	12	268.0	NA
46	3	21	M	swets	15	2	phoned	13	117.0	NA
46	3	21	M	swets	15	2	for	14	283.0	NA
46	3	21	M	swets	15	2	a	15	133.0	NA
46	3	21	M	swets	15	2	doctor.	16	316.0	NA
46	3	21	M	Question	15	2	NA	NA	1101.0	1
47	3	21	M	Filler	96	5	The	1	396.0	NA
47	3	21	M	Filler	96	5	evil	2	99.0	NA
47	3	21	M	Filler	96	5	man	3	134.0	NA
47	3	21	M	Filler	96	5	watched	4	150.0	NA
47	3	21	M	Filler	96	5	the	5	99.0	NA
47	3	21	M	Filler	96	5	doorway	6	134.0	NA
47	3	21	M	Filler	96	5	of	7	133.0	NA
47	3	21	M	Filler	96	5	the	8	167.0	NA
47	3	21	M	Filler	96	5	bar	9	183.0	NA
47	3	21	M	Filler	96	5	every	10	600.0	NA
47	3	21	M	Filler	96	5	Friday	11	400.0	NA
47	3	21	M	Filler	96	5	night.	12	434.0	NA
47	3	21	M	Question	96	5	NA	NA	1267.0	1
48	3	21	M	Filler	48	4	The	1	444.0	NA
48	3	21	M	Filler	48	4	police	2	102.0	NA
48	3	21	M	Filler	48	4	arrested	3	132.0	NA
48	3	21	M	Filler	48	4	the	4	166.0	NA
48	3	21	M	Filler	48	4	sister	5	168.0	NA
48	3	21	M	Filler	48	4	of	6	150.0	NA
48	3	21	M	Filler	48	4	the	7	132.0	NA
48	3	21	M	Filler	48	4	handyman	8	134.0	NA
48	3	21	M	Filler	48	4	after	9	167.0	NA
48	3	21	M	Filler	48	4	she	10	149.0	NA
48	3	21	M	Filler	48	4	recently	11	168.0	NA
48	3	21	M	Filler	48	4	gave	12	183.0	NA
48	3	21	M	Filler	48	4	birth	13	168.0	NA
48	3	21	M	Filler	48	4	to	14	366.0	NA
48	3	21	M	Filler	48	4	twins.	15	216.0	NA
48	3	21	M	Question	48	4	NA	NA	1267.0	1
49	3	21	M	swets	5	1	The	1	296.0	NA
49	3	21	M	swets	5	1	uncle	2	165.0	NA
49	3	21	M	swets	5	1	of	3	103.0	NA
49	3	21	M	swets	5	1	the	4	133.0	NA
49	3	21	M	swets	5	1	bishop	5	165.0	NA
49	3	21	M	swets	5	1	who	6	134.0	NA
49	3	21	M	swets	5	1	injured	7	167.0	NA
49	3	21	M	swets	5	1	himself	8	134.0	NA
49	3	21	M	swets	5	1	last	9	149.0	NA
49	3	21	M	swets	5	1	summer	10	134.0	NA
49	3	21	M	swets	5	1	was	11	166.0	NA
49	3	21	M	swets	5	1	concerned	12	134.0	NA
49	3	21	M	swets	5	1	about	13	100.0	NA
49	3	21	M	swets	5	1	the	14	182.0	NA
49	3	21	M	swets	5	1	infection.	15	201.0	NA
49	3	21	M	Question	5	1	NA	NA	1501.0	1
50	3	21	M	Filler	69	4	The	1	312.0	NA
50	3	21	M	Filler	69	4	tiny	2	100.0	NA
50	3	21	M	Filler	69	4	child	3	116.0	NA
50	3	21	M	Filler	69	4	rolled	4	134.0	NA
50	3	21	M	Filler	69	4	the	5	150.0	NA
50	3	21	M	Filler	69	4	piece	6	299.0	NA
50	3	21	M	Filler	69	4	of	7	117.0	NA
50	3	21	M	Filler	69	4	the	8	133.0	NA
50	3	21	M	Filler	69	4	toy	9	134.0	NA
50	3	21	M	Filler	69	4	into	10	117.0	NA
50	3	21	M	Filler	69	4	the	11	367.0	NA
50	3	21	M	Filler	69	4	next	12	133.0	NA
50	3	21	M	Filler	69	4	room	13	284.0	NA
50	3	21	M	Filler	69	4	after	14	400.0	NA
50	3	21	M	Filler	69	4	it	15	317.0	NA
50	3	21	M	Filler	69	4	broke	16	217.0	NA
50	3	21	M	Filler	69	4	off.	17	382.0	NA
50	3	21	M	Question	69	4	NA	NA	933.0	1
51	3	21	M	Filler	37	4	The	1	428.0	NA
51	3	21	M	Filler	37	4	party	2	99.0	NA
51	3	21	M	Filler	37	4	attracted	3	101.0	NA
51	3	21	M	Filler	37	4	the	4	167.0	NA
51	3	21	M	Filler	37	4	fraternity	5	134.0	NA
51	3	21	M	Filler	37	4	members	6	134.0	NA
51	3	21	M	Filler	37	4	whose	7	132.0	NA
51	3	21	M	Filler	37	4	house	8	151.0	NA
51	3	21	M	Filler	37	4	had	9	217.0	NA
51	3	21	M	Filler	37	4	been	10	199.0	NA
51	3	21	M	Filler	37	4	seized	11	201.0	NA
51	3	21	M	Filler	37	4	by	12	383.0	NA
51	3	21	M	Filler	37	4	drug	13	182.0	NA
51	3	21	M	Filler	37	4	agents.	14	285.0	NA
51	3	21	M	Question	37	4	NA	NA	1099.0	1
52	3	21	M	Filler	107	5	The	1	279.0	NA
52	3	21	M	Filler	107	5	citizens	2	165.0	NA
52	3	21	M	Filler	107	5	were	3	136.0	NA
52	3	21	M	Filler	107	5	dissatisfied	4	182.0	NA
52	3	21	M	Filler	107	5	with	5	149.0	NA
52	3	21	M	Filler	107	5	the	6	152.0	NA
52	3	21	M	Filler	107	5	mayor	7	166.0	NA
52	3	21	M	Filler	107	5	of	8	166.0	NA
52	3	21	M	Filler	107	5	town	9	150.0	NA
52	3	21	M	Filler	107	5	because	10	167.0	NA
52	3	21	M	Filler	107	5	he	11	200.0	NA
52	3	21	M	Filler	107	5	had	12	117.0	NA
52	3	21	M	Filler	107	5	little	13	149.0	NA
52	3	21	M	Filler	107	5	experience.	14	235.0	NA
52	3	21	M	Question	107	5	NA	NA	1266.0	1
53	3	21	M	Filler	124	6	The	1	296.0	NA
53	3	21	M	Filler	124	6	mothers	2	99.0	NA
53	3	21	M	Filler	124	6	and	3	100.0	NA
53	3	21	M	Filler	124	6	teachers	4	134.0	NA
53	3	21	M	Filler	124	6	played	5	167.0	NA
53	3	21	M	Filler	124	6	tennis	6	134.0	NA
53	3	21	M	Filler	124	6	after	7	133.0	NA
53	3	21	M	Filler	124	6	the	8	167.0	NA
53	3	21	M	Filler	124	6	kids	9	166.0	NA
53	3	21	M	Filler	124	6	left.	10	118.0	NA
53	3	21	M	Question	124	6	NA	NA	866.0	1
54	3	21	M	Filler	135	7	While	1	779.0	NA
54	3	21	M	Filler	135	7	Donna	2	133.0	NA
54	3	21	M	Filler	135	7	and	3	149.0	NA
54	3	21	M	Filler	135	7	Scott	4	183.0	NA
54	3	21	M	Filler	135	7	met	5	85.0	NA
54	3	21	M	Filler	135	7	their	6	131.0	NA
54	3	21	M	Filler	135	7	agent	7	184.0	NA
54	3	21	M	Filler	135	7	some	8	152.0	NA
54	3	21	M	Filler	135	7	friends	9	183.0	NA
54	3	21	M	Filler	135	7	called	10	134.0	NA
54	3	21	M	Filler	135	7	and	11	182.0	NA
54	3	21	M	Filler	135	7	left	12	151.0	NA
54	3	21	M	Filler	135	7	a	13	267.0	NA
54	3	21	M	Filler	135	7	message.	14	166.0	NA
54	3	21	M	Question	135	7	NA	NA	1466.0	1
55	3	21	M	swets	16	3	The	1	263.0	NA
55	3	21	M	swets	16	3	widow	2	166.0	NA
55	3	21	M	swets	16	3	of	3	134.0	NA
55	3	21	M	swets	16	3	the	4	116.0	NA
55	3	21	M	swets	16	3	general	5	134.0	NA
55	3	21	M	swets	16	3	who	6	216.0	NA
55	3	21	M	swets	16	3	sacrificed	7	168.0	NA
55	3	21	M	swets	16	3	herself	8	149.0	NA
55	3	21	M	swets	16	3	for	9	200.0	NA
55	3	21	M	swets	16	3	the	10	334.0	NA
55	3	21	M	swets	16	3	cause	11	499.0	NA
55	3	21	M	swets	16	3	was	12	335.0	NA
55	3	21	M	swets	16	3	the	13	298.0	NA
55	3	21	M	swets	16	3	subject	14	434.0	NA
55	3	21	M	swets	16	3	of	15	301.0	NA
55	3	21	M	swets	16	3	the	16	234.0	NA
55	3	21	M	swets	16	3	biography.	17	233.0	NA
55	3	21	M	Question	16	3	NA	NA	1416.0	1
56	3	21	M	Filler	99	5	The	1	312.0	NA
56	3	21	M	Filler	99	5	daring	2	117.0	NA
56	3	21	M	Filler	99	5	photographer	3	199.0	NA
56	3	21	M	Filler	99	5	captured	4	201.0	NA
56	3	21	M	Filler	99	5	the	5	201.0	NA
56	3	21	M	Filler	99	5	image	6	232.0	NA
56	3	21	M	Filler	99	5	of	7	150.0	NA
56	3	21	M	Filler	99	5	the	8	183.0	NA
56	3	21	M	Filler	99	5	destruction	9	166.0	NA
56	3	21	M	Filler	99	5	as	10	267.0	NA
56	3	21	M	Filler	99	5	it	11	151.0	NA
56	3	21	M	Filler	99	5	devastated	12	233.0	NA
56	3	21	M	Filler	99	5	the	13	334.0	NA
56	3	21	M	Filler	99	5	village.	14	201.0	NA
56	3	21	M	Question	99	5	NA	NA	1099.0	1
57	3	21	M	Filler	131	7	While	1	379.0	NA
57	3	21	M	Filler	131	7	Jamie	2	117.0	NA
57	3	21	M	Filler	131	7	dried	3	233.0	NA
57	3	21	M	Filler	131	7	off	4	166.0	NA
57	3	21	M	Filler	131	7	the	5	266.0	NA
57	3	21	M	Filler	131	7	table	6	201.0	NA
57	3	21	M	Filler	131	7	his	7	198.0	NA
57	3	21	M	Filler	131	7	sunglasses	8	134.0	NA
57	3	21	M	Filler	131	7	disappeared.	9	283.0	NA
57	3	21	M	Question	131	7	NA	NA	1368.0	1
58	3	21	M	Filler	79	5	Although	1	528.0	NA
58	3	21	M	Filler	79	5	the	2	168.0	NA
58	3	21	M	Filler	79	5	mechanic	3	82.0	NA
58	3	21	M	Filler	79	5	said	4	268.0	NA
58	3	21	M	Filler	79	5	the	5	199.0	NA
58	3	21	M	Filler	79	5	job	6	200.0	NA
58	3	21	M	Filler	79	5	would	7	200.0	NA
58	3	21	M	Filler	79	5	take	8	399.0	NA
58	3	21	M	Filler	79	5	four	9	201.0	NA
58	3	21	M	Filler	79	5	days	10	301.0	NA
58	3	21	M	Filler	79	5	the	11	201.0	NA
58	3	21	M	Filler	79	5	client	12	182.0	NA
58	3	21	M	Filler	79	5	didn't	13	267.0	NA
58	3	21	M	Filler	79	5	receive	14	167.0	NA
58	3	21	M	Filler	79	5	her	15	234.0	NA
58	3	21	M	Filler	79	5	car	16	250.0	NA
58	3	21	M	Filler	79	5	for	17	200.0	NA
58	3	21	M	Filler	79	5	six	18	266.0	NA
58	3	21	M	Filler	79	5	weeks.	19	400.0	NA
58	3	21	M	Question	79	5	NA	NA	967.0	1
59	3	21	M	swets	25	3	The	1	445.0	NA
59	3	21	M	swets	25	3	grandfather	2	151.0	NA
59	3	21	M	swets	25	3	of	3	150.0	NA
59	3	21	M	swets	25	3	the	4	149.0	NA
59	3	21	M	swets	25	3	stewardess	5	134.0	NA
59	3	21	M	swets	25	3	who	6	216.0	NA
59	3	21	M	swets	25	3	treated	7	185.0	NA
59	3	21	M	swets	25	3	himself	8	183.0	NA
59	3	21	M	swets	25	3	to	9	233.0	NA
59	3	21	M	swets	25	3	an	10	167.0	NA
59	3	21	M	swets	25	3	ice-cream	11	199.0	NA
59	3	21	M	swets	25	3	cone	12	234.0	NA
59	3	21	M	swets	25	3	was	13	167.0	NA
59	3	21	M	swets	25	3	waiting	14	217.0	NA
59	3	21	M	swets	25	3	at	15	250.0	NA
59	3	21	M	swets	25	3	home.	16	183.0	NA
59	3	21	M	Question	25	3	NA	NA	999.0	1
60	3	21	M	Filler	74	5	My	1	294.0	NA
60	3	21	M	Filler	74	5	former	2	117.0	NA
60	3	21	M	Filler	74	5	girlfriend	3	134.0	NA
60	3	21	M	Filler	74	5	criticized	4	200.0	NA
60	3	21	M	Filler	74	5	the	5	199.0	NA
60	3	21	M	Filler	74	5	author's	6	200.0	NA
60	3	21	M	Filler	74	5	agent	7	152.0	NA
60	3	21	M	Filler	74	5	because	8	200.0	NA
60	3	21	M	Filler	74	5	he	9	184.0	NA
60	3	21	M	Filler	74	5	had	10	200.0	NA
60	3	21	M	Filler	74	5	failed	11	216.0	NA
60	3	21	M	Filler	74	5	to	12	217.0	NA
60	3	21	M	Filler	74	5	meet	13	200.0	NA
60	3	21	M	Filler	74	5	a	14	166.0	NA
60	3	21	M	Filler	74	5	deadline.	15	251.0	NA
60	3	21	M	Question	74	5	NA	NA	1232.0	1
61	3	21	M	Filler	51	4	The	1	528.0	NA
61	3	21	M	Filler	51	4	students	2	134.0	NA
61	3	21	M	Filler	51	4	were	3	166.0	NA
61	3	21	M	Filler	51	4	in	4	202.0	NA
61	3	21	M	Filler	51	4	a	5	164.0	NA
61	3	21	M	Filler	51	4	frenzy	6	200.0	NA
61	3	21	M	Filler	51	4	because	7	135.0	NA
61	3	21	M	Filler	51	4	they	8	166.0	NA
61	3	21	M	Filler	51	4	wanted	9	134.0	NA
61	3	21	M	Filler	51	4	tickets	10	167.0	NA
61	3	21	M	Filler	51	4	for	11	182.0	NA
61	3	21	M	Filler	51	4	the	12	185.0	NA
61	3	21	M	Filler	51	4	game	13	266.0	NA
61	3	21	M	Filler	51	4	tonight.	14	349.0	NA
61	3	21	M	Question	51	4	NA	NA	1068.0	1
62	3	21	M	Filler	113	6	While	1	761.0	NA
62	3	21	M	Filler	113	6	Noah	2	68.0	NA
62	3	21	M	Filler	113	6	was	3	132.0	NA
62	3	21	M	Filler	113	6	waking	4	167.0	NA
62	3	21	M	Filler	113	6	up	5	150.0	NA
62	3	21	M	Filler	113	6	the	6	100.0	NA
62	3	21	M	Filler	113	6	man	7	167.0	NA
62	3	21	M	Filler	113	6	the	8	84.0	NA
62	3	21	M	Filler	113	6	neighbor	9	200.0	NA
62	3	21	M	Filler	113	6	coughed	10	302.0	NA
62	3	21	M	Filler	113	6	loudly.	11	165.0	NA
62	3	21	M	Question	113	6	NA	NA	933.0	1
63	3	21	M	Filler	39	4	The	1	645.0	NA
63	3	21	M	Filler	39	4	overweight	2	166.0	NA
63	3	21	M	Filler	39	4	aunt	3	166.0	NA
63	3	21	M	Filler	39	4	decided	4	168.0	NA
63	3	21	M	Filler	39	4	to	5	167.0	NA
63	3	21	M	Filler	39	4	make	6	199.0	NA
63	3	21	M	Filler	39	4	cookies	7	200.0	NA
63	3	21	M	Filler	39	4	and	8	251.0	NA
63	3	21	M	Filler	39	4	cupcakes	9	233.0	NA
63	3	21	M	Filler	39	4	for	10	333.0	NA
63	3	21	M	Filler	39	4	the	11	151.0	NA
63	3	21	M	Filler	39	4	dinner	12	233.0	NA
63	3	21	M	Filler	39	4	party.	13	167.0	NA
63	3	21	M	Question	39	4	NA	NA	1033.0	1
64	3	21	M	Filler	71	4	The	1	295.0	NA
64	3	21	M	Filler	71	4	elderly	2	100.0	NA
64	3	21	M	Filler	71	4	woman	3	167.0	NA
64	3	21	M	Filler	71	4	locked	4	167.0	NA
64	3	21	M	Filler	71	4	and	5	167.0	NA
64	3	21	M	Filler	71	4	bolted	6	266.0	NA
64	3	21	M	Filler	71	4	her	7	251.0	NA
64	3	21	M	Filler	71	4	door	8	199.0	NA
64	3	21	M	Filler	71	4	every	9	234.0	NA
64	3	21	M	Filler	71	4	night	10	250.0	NA
64	3	21	M	Filler	71	4	after	11	415.0	NA
64	3	21	M	Filler	71	4	the	12	136.0	NA
64	3	21	M	Filler	71	4	robbers	13	265.0	NA
64	3	21	M	Filler	71	4	took	14	301.0	NA
64	3	21	M	Filler	71	4	her	15	134.0	NA
64	3	21	M	Filler	71	4	best	16	299.0	NA
64	3	21	M	Filler	71	4	pearls.	17	301.0	NA
64	3	21	M	Question	71	4	NA	NA	1200.0	1
65	3	21	M	Filler	91	5	The	1	412.0	NA
65	3	21	M	Filler	91	5	workman	2	133.0	NA
65	3	21	M	Filler	91	5	dropped	3	200.0	NA
65	3	21	M	Filler	91	5	the	4	168.0	NA
65	3	21	M	Filler	91	5	assistant	5	233.0	NA
65	3	21	M	Filler	91	5	who	6	184.0	NA
65	3	21	M	Filler	91	5	complained	7	182.0	NA
65	3	21	M	Filler	91	5	bitterly	8	235.0	NA
65	3	21	M	Filler	91	5	onto	9	216.0	NA
65	3	21	M	Filler	91	5	a	10	199.0	NA
65	3	21	M	Filler	91	5	lower	11	219.0	NA
65	3	21	M	Filler	91	5	floor.	12	265.0	NA
65	3	21	M	Question	91	5	NA	NA	1133.0	1
66	3	21	M	swets	29	1	The	1	295.0	NA
66	3	21	M	swets	29	1	brother	2	134.0	NA
66	3	21	M	swets	29	1	of	3	117.0	NA
66	3	21	M	swets	29	1	the	4	133.0	NA
66	3	21	M	swets	29	1	colonel	5	167.0	NA
66	3	21	M	swets	29	1	who	6	133.0	NA
66	3	21	M	swets	29	1	enjoyed	7	199.0	NA
66	3	21	M	swets	29	1	himself	8	169.0	NA
66	3	21	M	swets	29	1	a	9	199.0	NA
66	3	21	M	swets	29	1	lot	10	250.0	NA
66	3	21	M	swets	29	1	was	11	149.0	NA
66	3	21	M	swets	29	1	out	12	267.0	NA
66	3	21	M	swets	29	1	on	13	101.0	NA
66	3	21	M	swets	29	1	the	14	283.0	NA
66	3	21	M	swets	29	1	balcony.	15	133.0	NA
66	3	21	M	Question	29	1	NA	NA	950.0	1
67	3	21	M	Filler	70	4	The	1	378.0	NA
67	3	21	M	Filler	70	4	warden	2	100.0	NA
67	3	21	M	Filler	70	4	was	3	182.0	NA
67	3	21	M	Filler	70	4	dissatisfied	4	185.0	NA
67	3	21	M	Filler	70	4	with	5	150.0	NA
67	3	21	M	Filler	70	4	the	6	199.0	NA
67	3	21	M	Filler	70	4	decision	7	184.0	NA
67	3	21	M	Filler	70	4	of	8	283.0	NA
67	3	21	M	Filler	70	4	the	9	133.0	NA
67	3	21	M	Filler	70	4	parole	10	201.0	NA
67	3	21	M	Filler	70	4	committee	11	316.0	NA
67	3	21	M	Filler	70	4	to	12	301.0	NA
67	3	21	M	Filler	70	4	pardon	13	84.0	NA
67	3	21	M	Filler	70	4	the	14	282.0	NA
67	3	21	M	Filler	70	4	prisoner.	15	150.0	NA
67	3	21	M	Question	70	4	NA	NA	1001.0	1
68	3	21	M	swets	1	3	The	1	310.0	NA
68	3	21	M	swets	1	3	brother	2	135.0	NA
68	3	21	M	swets	1	3	of	3	84.0	NA
68	3	21	M	swets	1	3	the	4	116.0	NA
68	3	21	M	swets	1	3	actress	5	150.0	NA
68	3	21	M	swets	1	3	who	6	117.0	NA
68	3	21	M	swets	1	3	called	7	166.0	NA
68	3	21	M	swets	1	3	attention	8	99.0	NA
68	3	21	M	swets	1	3	to	9	150.0	NA
68	3	21	M	swets	1	3	himself	10	218.0	NA
68	3	21	M	swets	1	3	on	11	167.0	NA
68	3	21	M	swets	1	3	the	12	217.0	NA
68	3	21	M	swets	1	3	balcony	13	200.0	NA
68	3	21	M	swets	1	3	was	14	249.0	NA
68	3	21	M	swets	1	3	under	15	134.0	NA
68	3	21	M	swets	1	3	investigation.	16	700.0	NA
68	3	21	M	Question	1	3	NA	NA	766.0	1
69	3	21	M	Filler	84	5	While	1	329.0	NA
69	3	21	M	Filler	84	5	talking	2	99.0	NA
69	3	21	M	Filler	84	5	to	3	101.0	NA
69	3	21	M	Filler	84	5	his	4	133.0	NA
69	3	21	M	Filler	84	5	sister	5	133.0	NA
69	3	21	M	Filler	84	5	the	6	134.0	NA
69	3	21	M	Filler	84	5	bishop	7	199.0	NA
69	3	21	M	Filler	84	5	with	8	134.0	NA
69	3	21	M	Filler	84	5	the	9	183.0	NA
69	3	21	M	Filler	84	5	funny	10	200.0	NA
69	3	21	M	Filler	84	5	eyebrows	11	683.0	NA
69	3	21	M	Filler	84	5	advocated	12	469.0	NA
69	3	21	M	Filler	84	5	strange	13	198.0	NA
69	3	21	M	Filler	84	5	beliefs.	14	168.0	NA
69	3	21	M	Question	84	5	NA	NA	1466.0	1
70	3	21	M	Filler	41	4	While	1	295.0	NA
70	3	21	M	Filler	41	4	the	2	84.0	NA
70	3	21	M	Filler	41	4	babysitter	3	199.0	NA
70	3	21	M	Filler	41	4	watched	4	117.0	NA
70	3	21	M	Filler	41	4	soap	5	150.0	NA
70	3	21	M	Filler	41	4	operas	6	167.0	NA
70	3	21	M	Filler	41	4	the	7	151.0	NA
70	3	21	M	Filler	41	4	child	8	134.0	NA
70	3	21	M	Filler	41	4	poured	9	199.0	NA
70	3	21	M	Filler	41	4	honey	10	199.0	NA
70	3	21	M	Filler	41	4	all	11	218.0	NA
70	3	21	M	Filler	41	4	over	12	166.0	NA
70	3	21	M	Filler	41	4	the	13	185.0	NA
70	3	21	M	Filler	41	4	floor.	14	282.0	NA
70	3	21	M	Question	41	4	NA	NA	1068.0	1
71	3	21	M	Filler	50	4	The	1	362.0	NA
71	3	21	M	Filler	50	4	new	2	118.0	NA
71	3	21	M	Filler	50	4	language	3	133.0	NA
71	3	21	M	Filler	50	4	requirement	4	167.0	NA
71	3	21	M	Filler	50	4	made	5	182.0	NA
71	3	21	M	Filler	50	4	all	6	167.0	NA
71	3	21	M	Filler	50	4	the	7	234.0	NA
71	3	21	M	Filler	50	4	students	8	165.0	NA
71	3	21	M	Filler	50	4	say	9	168.0	NA
71	3	21	M	Filler	50	4	bad	10	183.0	NA
71	3	21	M	Filler	50	4	things	11	184.0	NA
71	3	21	M	Filler	50	4	about	12	332.0	NA
71	3	21	M	Filler	50	4	the	13	134.0	NA
71	3	21	M	Filler	50	4	dean	14	151.0	NA
71	3	21	M	Filler	50	4	of	15	200.0	NA
71	3	21	M	Filler	50	4	the	16	199.0	NA
71	3	21	M	Filler	50	4	college.	17	219.0	NA
71	3	21	M	Question	50	4	NA	NA	999.0	1
72	3	21	M	Filler	67	4	The	1	327.0	NA
72	3	21	M	Filler	67	4	restaurant	2	102.0	NA
72	3	21	M	Filler	67	4	was	3	165.0	NA
72	3	21	M	Filler	67	4	famous	4	166.0	NA
72	3	21	M	Filler	67	4	for	5	134.0	NA
72	3	21	M	Filler	67	4	its	6	151.0	NA
72	3	21	M	Filler	67	4	French	7	199.0	NA
72	3	21	M	Filler	67	4	pastries	8	167.0	NA
72	3	21	M	Filler	67	4	and	9	218.0	NA
72	3	21	M	Filler	67	4	fine	10	167.0	NA
72	3	21	M	Filler	67	4	wines.	11	183.0	NA
72	3	21	M	Question	67	4	NA	NA	1567.0	1
73	3	21	M	swets	13	3	The	1	311.0	NA
73	3	21	M	swets	13	3	great-aunt	2	101.0	NA
73	3	21	M	swets	13	3	of	3	150.0	NA
73	3	21	M	swets	13	3	the	4	134.0	NA
73	3	21	M	swets	13	3	policeman	5	166.0	NA
73	3	21	M	swets	13	3	who	6	151.0	NA
73	3	21	M	swets	13	3	treated	7	184.0	NA
73	3	21	M	swets	13	3	herself	8	183.0	NA
73	3	21	M	swets	13	3	after	9	201.0	NA
73	3	21	M	swets	13	3	the	10	248.0	NA
73	3	21	M	swets	13	3	accident	11	184.0	NA
73	3	21	M	swets	13	3	was	12	150.0	NA
73	3	21	M	swets	13	3	watching	13	249.0	NA
73	3	21	M	swets	13	3	the	14	234.0	NA
73	3	21	M	swets	13	3	news.	15	134.0	NA
73	3	21	M	Question	13	3	NA	NA	1899.0	1
74	3	21	M	Filler	81	5	The	1	310.0	NA
74	3	21	M	Filler	81	5	stubborn	2	101.0	NA
74	3	21	M	Filler	81	5	old	3	150.0	NA
74	3	21	M	Filler	81	5	man	4	150.0	NA
74	3	21	M	Filler	81	5	criticized	5	201.0	NA
74	3	21	M	Filler	81	5	everything	6	199.0	NA
74	3	21	M	Filler	81	5	that	7	133.0	NA
74	3	21	M	Filler	81	5	the	8	150.0	NA
74	3	21	M	Filler	81	5	young	9	168.0	NA
74	3	21	M	Filler	81	5	student	10	200.0	NA
74	3	21	M	Filler	81	5	did.	11	350.0	NA
74	3	21	M	Question	81	5	NA	NA	900.0	1
75	3	21	M	swets	24	2	The	1	278.0	NA
75	3	21	M	swets	24	2	daughter	2	134.0	NA
75	3	21	M	swets	24	2	of	3	150.0	NA
75	3	21	M	swets	24	2	the	4	150.0	NA
75	3	21	M	swets	24	2	chaplain	5	167.0	NA
75	3	21	M	swets	24	2	who	6	166.0	NA
75	3	21	M	swets	24	2	drew	7	183.0	NA
75	3	21	M	swets	24	2	attention	8	201.0	NA
75	3	21	M	swets	24	2	to	9	217.0	NA
75	3	21	M	swets	24	2	himself	10	250.0	NA
75	3	21	M	swets	24	2	all	11	200.0	NA
75	3	21	M	swets	24	2	the	12	166.0	NA
75	3	21	M	swets	24	2	time	13	167.0	NA
75	3	21	M	swets	24	2	hated	14	368.0	NA
75	3	21	M	swets	24	2	small	15	132.0	NA
75	3	21	M	swets	24	2	children.	16	218.0	NA
75	3	21	M	Question	24	2	NA	NA	999.0	1
76	3	21	M	Filler	72	4	The	1	297.0	NA
76	3	21	M	Filler	72	4	secretaries	2	116.0	NA
76	3	21	M	Filler	72	4	couldn't	3	133.0	NA
76	3	21	M	Filler	72	4	break	4	166.0	NA
76	3	21	M	Filler	72	4	away	5	268.0	NA
76	3	21	M	Filler	72	4	from	6	199.0	NA
76	3	21	M	Filler	72	4	their	7	267.0	NA
76	3	21	M	Filler	72	4	habit	8	300.0	NA
76	3	21	M	Filler	72	4	of	9	399.0	NA
76	3	21	M	Filler	72	4	coffee	10	150.0	NA
76	3	21	M	Filler	72	4	and	11	299.0	NA
76	3	21	M	Filler	72	4	cigarettes	12	168.0	NA
76	3	21	M	Filler	72	4	during	13	366.0	NA
76	3	21	M	Filler	72	4	their	14	133.0	NA
76	3	21	M	Filler	72	4	breaks.	15	201.0	NA
76	3	21	M	Question	72	4	NA	NA	1067.0	1
77	3	21	M	Filler	106	5	On	1	312.0	NA
77	3	21	M	Filler	106	5	the	2	133.0	NA
77	3	21	M	Filler	106	5	last	3	166.0	NA
77	3	21	M	Filler	106	5	night	4	167.0	NA
77	3	21	M	Filler	106	5	of	5	167.0	NA
77	3	21	M	Filler	106	5	summer	6	166.0	NA
77	3	21	M	Filler	106	5	camp	7	135.0	NA
77	3	21	M	Filler	106	5	the	8	182.0	NA
77	3	21	M	Filler	106	5	counselors	9	151.0	NA
77	3	21	M	Filler	106	5	let	10	134.0	NA
77	3	21	M	Filler	106	5	the	11	166.0	NA
77	3	21	M	Filler	106	5	children	12	216.0	NA
77	3	21	M	Filler	106	5	stay	13	134.0	NA
77	3	21	M	Filler	106	5	up	14	235.0	NA
77	3	21	M	Filler	106	5	until	15	167.0	NA
77	3	21	M	Filler	106	5	midnight.	16	248.0	NA
77	3	21	M	Question	106	5	NA	NA	1083.0	1
78	3	21	M	Filler	83	5	The	1	293.0	NA
78	3	21	M	Filler	83	5	passengers	2	101.0	NA
78	3	21	M	Filler	83	5	screamed	3	168.0	NA
78	3	21	M	Filler	83	5	as	4	150.0	NA
78	3	21	M	Filler	83	5	the	5	167.0	NA
78	3	21	M	Filler	83	5	plane	6	165.0	NA
78	3	21	M	Filler	83	5	dipped	7	151.0	NA
78	3	21	M	Filler	83	5	and	8	199.0	NA
78	3	21	M	Filler	83	5	the	9	183.0	NA
78	3	21	M	Filler	83	5	pilots	10	167.0	NA
78	3	21	M	Filler	83	5	said	11	200.0	NA
78	3	21	M	Filler	83	5	their	12	150.0	NA
78	3	21	M	Filler	83	5	prayers	13	233.0	NA
78	3	21	M	Filler	83	5	quietly.	14	133.0	NA
78	3	21	M	Question	83	5	NA	NA	1234.0	1
79	3	21	M	Filler	108	5	The	1	445.0	NA
79	3	21	M	Filler	108	5	museum	2	166.0	NA
79	3	21	M	Filler	108	5	wing	3	118.0	NA
79	3	21	M	Filler	108	5	which	4	149.0	NA
79	3	21	M	Filler	108	5	housed	5	201.0	NA
79	3	21	M	Filler	108	5	all	6	200.0	NA
79	3	21	M	Filler	108	5	the	7	200.0	NA
79	3	21	M	Filler	108	5	Picasso	8	200.0	NA
79	3	21	M	Filler	108	5	paintings	9	184.0	NA
79	3	21	M	Filler	108	5	was	10	216.0	NA
79	3	21	M	Filler	108	5	very	11	150.0	NA
79	3	21	M	Filler	108	5	crowded.	12	167.0	NA
79	3	21	M	Question	108	5	NA	NA	1200.0	1
80	3	21	M	swets	11	1	The	1	379.0	NA
80	3	21	M	swets	11	1	father	2	167.0	NA
80	3	21	M	swets	11	1	of	3	133.0	NA
80	3	21	M	swets	11	1	the	4	166.0	NA
80	3	21	M	swets	11	1	surgeon	5	167.0	NA
80	3	21	M	swets	11	1	who	6	134.0	NA
80	3	21	M	swets	11	1	made	7	199.0	NA
80	3	21	M	swets	11	1	a	8	151.0	NA
80	3	21	M	swets	11	1	fool	9	201.0	NA
80	3	21	M	swets	11	1	of	10	150.0	NA
80	3	21	M	swets	11	1	himself	11	199.0	NA
80	3	21	M	swets	11	1	at	12	233.0	NA
80	3	21	M	swets	11	1	the	13	150.0	NA
80	3	21	M	swets	11	1	party	14	167.0	NA
80	3	21	M	swets	11	1	was	15	234.0	NA
80	3	21	M	swets	11	1	greatly	16	167.0	NA
80	3	21	M	swets	11	1	embarrassed.	17	399.0	NA
80	3	21	M	Question	11	1	NA	NA	767.0	1
81	3	21	M	Filler	58	4	The	1	410.0	NA
81	3	21	M	Filler	58	4	white	2	217.0	NA
81	3	21	M	Filler	58	4	dog	3	166.0	NA
81	3	21	M	Filler	58	4	bit	4	151.0	NA
81	3	21	M	Filler	58	4	the	5	117.0	NA
81	3	21	M	Filler	58	4	ankle	6	167.0	NA
81	3	21	M	Filler	58	4	of	7	183.0	NA
81	3	21	M	Filler	58	4	the	8	167.0	NA
81	3	21	M	Filler	58	4	child.	9	166.0	NA
81	3	21	M	Question	58	4	NA	NA	634.0	1
82	3	21	M	Filler	117	6	While	1	1162.0	NA
82	3	21	M	Filler	117	6	Mike	2	133.0	NA
82	3	21	M	Filler	117	6	coughed	3	67.0	NA
82	3	21	M	Filler	117	6	Janet	4	166.0	NA
82	3	21	M	Filler	117	6	went	5	151.0	NA
82	3	21	M	Filler	117	6	out	6	133.0	NA
82	3	21	M	Filler	117	6	to	7	200.0	NA
82	3	21	M	Filler	117	6	get	8	150.0	NA
82	3	21	M	Filler	117	6	some	9	166.0	NA
82	3	21	M	Filler	117	6	cough	10	135.0	NA
82	3	21	M	Filler	117	6	medicine.	11	484.0	NA
82	3	21	M	Question	117	6	NA	NA	1065.0	1
83	3	21	M	Filler	87	5	The	1	629.0	NA
83	3	21	M	Filler	87	5	car	2	199.0	NA
83	3	21	M	Filler	87	5	chased	3	118.0	NA
83	3	21	M	Filler	87	5	the	4	132.0	NA
83	3	21	M	Filler	87	5	robber	5	167.0	NA
83	3	21	M	Filler	87	5	of	6	217.0	NA
83	3	21	M	Filler	87	5	the	7	151.0	NA
83	3	21	M	Filler	87	5	bank	8	165.0	NA
83	3	21	M	Filler	87	5	into	9	167.0	NA
83	3	21	M	Filler	87	5	a	10	385.0	NA
83	3	21	M	Filler	87	5	narrow	11	232.0	NA
83	3	21	M	Filler	87	5	alley.	12	134.0	NA
83	3	21	M	Question	87	5	NA	NA	833.0	1
84	3	21	M	Filler	123	6	The	1	479.0	NA
84	3	21	M	Filler	123	6	student	2	166.0	NA
84	3	21	M	Filler	123	6	and	3	151.0	NA
84	3	21	M	Filler	123	6	professor	4	183.0	NA
84	3	21	M	Filler	123	6	went	5	150.0	NA
84	3	21	M	Filler	123	6	for	6	184.0	NA
84	3	21	M	Filler	123	6	a	7	167.0	NA
84	3	21	M	Filler	123	6	walk	8	198.0	NA
84	3	21	M	Filler	123	6	last	9	35.0	NA
84	3	21	M	Filler	123	6	Tuesday.	10	266.0	NA
84	3	21	M	Question	123	6	NA	NA	899.0	1
85	3	21	M	Filler	127	7	While	1	362.0	NA
85	3	21	M	Filler	127	7	Linda	2	167.0	NA
85	3	21	M	Filler	127	7	wrote	3	165.0	NA
85	3	21	M	Filler	127	7	the	4	168.0	NA
85	3	21	M	Filler	127	7	letter	5	183.0	NA
85	3	21	M	Filler	127	7	arrived	6	166.0	NA
85	3	21	M	Filler	127	7	from	7	152.0	NA
85	3	21	M	Filler	127	7	Chicago.	8	133.0	NA
85	3	21	M	Question	127	7	NA	NA	1399.0	1
86	3	21	M	swets	27	2	The	1	595.0	NA
86	3	21	M	swets	27	2	sister	2	100.0	NA
86	3	21	M	swets	27	2	of	3	201.0	NA
86	3	21	M	swets	27	2	the	4	182.0	NA
86	3	21	M	swets	27	2	butcher	5	167.0	NA
86	3	21	M	swets	27	2	who	6	200.0	NA
86	3	21	M	swets	27	2	invited	7	167.0	NA
86	3	21	M	swets	27	2	himself	8	233.0	NA
86	3	21	M	swets	27	2	to	9	150.0	NA
86	3	21	M	swets	27	2	the	10	216.0	NA
86	3	21	M	swets	27	2	party	11	200.0	NA
86	3	21	M	swets	27	2	enjoyed	12	234.0	NA
86	3	21	M	swets	27	2	it	13	200.0	NA
86	3	21	M	swets	27	2	quite	14	399.0	NA
86	3	21	M	swets	27	2	a	15	235.0	NA
86	3	21	M	swets	27	2	bit.	16	201.0	NA
86	3	21	M	Question	27	2	NA	NA	1033.0	1
87	3	21	M	Filler	46	4	The	1	328.0	NA
87	3	21	M	Filler	46	4	preacher	2	118.0	NA
87	3	21	M	Filler	46	4	of	3	165.0	NA
87	3	21	M	Filler	46	4	the	4	184.0	NA
87	3	21	M	Filler	46	4	congregation	5	167.0	NA
87	3	21	M	Filler	46	4	had	6	167.0	NA
87	3	21	M	Filler	46	4	given	7	168.0	NA
87	3	21	M	Filler	46	4	a	8	166.0	NA
87	3	21	M	Filler	46	4	sermon	9	217.0	NA
87	3	21	M	Filler	46	4	at	10	200.0	NA
87	3	21	M	Filler	46	4	a	11	166.0	NA
87	3	21	M	Filler	46	4	local	12	351.0	NA
87	3	21	M	Filler	46	4	school.	13	349.0	NA
87	3	21	M	Question	46	4	NA	NA	833.0	1
88	3	21	M	Filler	65	4	Even	1	430.0	NA
88	3	21	M	Filler	65	4	though	2	166.0	NA
88	3	21	M	Filler	65	4	the	3	84.0	NA
88	3	21	M	Filler	65	4	goalie	4	101.0	NA
88	3	21	M	Filler	65	4	had	5	100.0	NA
88	3	21	M	Filler	65	4	a	6	149.0	NA
88	3	21	M	Filler	65	4	bad	7	216.0	NA
88	3	21	M	Filler	65	4	cold	8	150.0	NA
88	3	21	M	Filler	65	4	the	9	300.0	NA
88	3	21	M	Filler	65	4	team	10	84.0	NA
88	3	21	M	Filler	65	4	was	11	150.0	NA
88	3	21	M	Filler	65	4	preparing	12	233.0	NA
88	3	21	M	Filler	65	4	for	13	233.0	NA
88	3	21	M	Filler	65	4	the	14	151.0	NA
88	3	21	M	Filler	65	4	tournament.	15	166.0	NA
88	3	21	M	Question	65	4	NA	NA	866.0	1
89	3	21	M	Filler	136	7	While	1	494.0	NA
89	3	21	M	Filler	136	7	Mark	2	100.0	NA
89	3	21	M	Filler	136	7	and	3	117.0	NA
89	3	21	M	Filler	136	7	Jenny	4	101.0	NA
89	3	21	M	Filler	136	7	were	5	100.0	NA
89	3	21	M	Filler	136	7	cuddling	6	199.0	NA
89	3	21	M	Filler	136	7	the	7	151.0	NA
89	3	21	M	Filler	136	7	older	8	200.0	NA
89	3	21	M	Filler	136	7	dogs	9	182.0	NA
89	3	21	M	Filler	136	7	the	10	217.0	NA
89	3	21	M	Filler	136	7	puppies	11	301.0	NA
89	3	21	M	Filler	136	7	nipped	12	399.0	NA
89	3	21	M	Filler	136	7	at	13	652.0	NA
89	3	21	M	Filler	136	7	their	14	432.0	NA
89	3	21	M	Filler	136	7	feet.	15	251.0	NA
89	3	21	M	Question	136	7	NA	NA	1100.0	1
90	3	21	M	swets	9	2	The	1	345.0	NA
90	3	21	M	swets	9	2	father	2	100.0	NA
90	3	21	M	swets	9	2	of	3	150.0	NA
90	3	21	M	swets	9	2	the	4	100.0	NA
90	3	21	M	swets	9	2	schoolgirl	5	118.0	NA
90	3	21	M	swets	9	2	who	6	132.0	NA
90	3	21	M	swets	9	2	burned	7	134.0	NA
90	3	21	M	swets	9	2	herself	8	182.0	NA
90	3	21	M	swets	9	2	the	9	168.0	NA
90	3	21	M	swets	9	2	other	10	199.0	NA
90	3	21	M	swets	9	2	day	11	151.0	NA
90	3	21	M	swets	9	2	was	12	201.0	NA
90	3	21	M	swets	9	2	usually	13	266.0	NA
90	3	21	M	swets	9	2	very	14	150.0	NA
90	3	21	M	swets	9	2	careful.	15	232.0	NA
90	3	21	M	Question	9	2	NA	NA	2202.0	1
91	3	21	M	Filler	86	5	The	1	345.0	NA
91	3	21	M	Filler	86	5	family's	2	100.0	NA
91	3	21	M	Filler	86	5	television	3	100.0	NA
91	3	21	M	Filler	86	5	stopped	4	116.0	NA
91	3	21	M	Filler	86	5	working	5	100.0	NA
91	3	21	M	Filler	86	5	two	6	150.0	NA
91	3	21	M	Filler	86	5	days	7	134.0	NA
91	3	21	M	Filler	86	5	after	8	182.0	NA
91	3	21	M	Filler	86	5	the	9	184.0	NA
91	3	21	M	Filler	86	5	warranty	10	133.0	NA
91	3	21	M	Filler	86	5	expired.	11	302.0	NA
91	3	21	M	Question	86	5	NA	NA	1567.0	1
92	3	21	M	swets	10	3	The	1	577.0	NA
92	3	21	M	swets	10	3	uncle	2	117.0	NA
92	3	21	M	swets	10	3	of	3	83.0	NA
92	3	21	M	swets	10	3	the	4	133.0	NA
92	3	21	M	swets	10	3	nun	5	68.0	NA
92	3	21	M	swets	10	3	who	6	166.0	NA
92	3	21	M	swets	10	3	lost	7	150.0	NA
92	3	21	M	swets	10	3	himself	8	150.0	NA
92	3	21	M	swets	10	3	in	9	218.0	NA
92	3	21	M	swets	10	3	thought	10	199.0	NA
92	3	21	M	swets	10	3	was	11	152.0	NA
92	3	21	M	swets	10	3	disturbed	12	232.0	NA
92	3	21	M	swets	10	3	by	13	267.0	NA
92	3	21	M	swets	10	3	the	14	134.0	NA
92	3	21	M	swets	10	3	noise.	15	300.0	NA
92	3	21	M	Question	10	3	NA	NA	1699.0	1
93	3	21	M	Filler	73	5	My	1	262.0	NA
93	3	21	M	Filler	73	5	cousins	2	100.0	NA
93	3	21	M	Filler	73	5	admired	3	149.0	NA
93	3	21	M	Filler	73	5	the	4	68.0	NA
93	3	21	M	Filler	73	5	singer	5	133.0	NA
93	3	21	M	Filler	73	5	although	6	132.0	NA
93	3	21	M	Filler	73	5	she	7	102.0	NA
93	3	21	M	Filler	73	5	never	8	349.0	NA
93	3	21	M	Filler	73	5	became	9	134.0	NA
93	3	21	M	Filler	73	5	popular.	10	99.0	NA
93	3	21	M	Question	73	5	NA	NA	1167.0	1
94	3	21	M	Filler	101	5	The	1	312.0	NA
94	3	21	M	Filler	101	5	friendly	2	167.0	NA
94	3	21	M	Filler	101	5	woman	3	133.0	NA
94	3	21	M	Filler	101	5	was	4	149.0	NA
94	3	21	M	Filler	101	5	insulted	5	167.0	NA
94	3	21	M	Filler	101	5	by	6	150.0	NA
94	3	21	M	Filler	101	5	the	7	232.0	NA
94	3	21	M	Filler	101	5	rude	8	135.0	NA
94	3	21	M	Filler	101	5	stranger	9	400.0	NA
94	3	21	M	Filler	101	5	because	10	499.0	NA
94	3	21	M	Filler	101	5	he	11	68.0	NA
94	3	21	M	Filler	101	5	didn't	12	167.0	NA
94	3	21	M	Filler	101	5	smile	13	200.0	NA
94	3	21	M	Filler	101	5	at	14	149.0	NA
94	3	21	M	Filler	101	5	her.	15	268.0	NA
94	3	21	M	Question	101	5	NA	NA	900.0	1
95	3	21	M	Filler	119	6	Everybody	1	294.0	NA
95	3	21	M	Filler	119	6	is	2	84.0	NA
95	3	21	M	Filler	119	6	wondering	3	133.0	NA
95	3	21	M	Filler	119	6	which	4	133.0	NA
95	3	21	M	Filler	119	6	software	5	117.0	NA
95	3	21	M	Filler	119	6	Gary	6	167.0	NA
95	3	21	M	Filler	119	6	installed	7	166.0	NA
95	3	21	M	Filler	119	6	without	8	136.0	NA
95	3	21	M	Filler	119	6	buying	9	166.0	NA
95	3	21	M	Filler	119	6	last	10	232.0	NA
95	3	21	M	Filler	119	6	June.	11	202.0	NA
95	3	21	M	Question	119	6	NA	NA	1565.0	1
96	3	21	M	swets	36	2	The	1	278.0	NA
96	3	21	M	swets	36	2	son	2	218.0	NA
96	3	21	M	swets	36	2	of	3	149.0	NA
96	3	21	M	swets	36	2	the	4	101.0	NA
96	3	21	M	swets	36	2	saleswoman	5	101.0	NA
96	3	21	M	swets	36	2	who	6	166.0	NA
96	3	21	M	swets	36	2	talked	7	199.0	NA
96	3	21	M	swets	36	2	to	8	200.0	NA
96	3	21	M	swets	36	2	herself	9	200.0	NA
96	3	21	M	swets	36	2	all	10	283.0	NA
96	3	21	M	swets	36	2	the	11	118.0	NA
96	3	21	M	swets	36	2	time	12	249.0	NA
96	3	21	M	swets	36	2	walked	13	201.0	NA
96	3	21	M	swets	36	2	into	14	99.0	NA
96	3	21	M	swets	36	2	the	15	284.0	NA
96	3	21	M	swets	36	2	room.	16	132.0	NA
96	3	21	M	Question	36	2	NA	NA	967.0	1
97	3	21	M	Filler	125	6	The	1	262.0	NA
97	3	21	M	Filler	125	6	bosses	2	150.0	NA
97	3	21	M	Filler	125	6	and	3	117.0	NA
97	3	21	M	Filler	125	6	secretaries	4	100.0	NA
97	3	21	M	Filler	125	6	took	5	99.0	NA
97	3	21	M	Filler	125	6	a	6	117.0	NA
97	3	21	M	Filler	125	6	long	7	167.0	NA
97	3	21	M	Filler	125	6	lunch	8	134.0	NA
97	3	21	M	Filler	125	6	together	9	133.0	NA
97	3	21	M	Filler	125	6	every	10	350.0	NA
97	3	21	M	Filler	125	6	Friday.	11	166.0	NA
97	3	21	M	Question	125	6	NA	NA	1201.0	1
98	3	21	M	Filler	52	4	The	1	261.0	NA
98	3	21	M	Filler	52	4	students	2	133.0	NA
98	3	21	M	Filler	52	4	were	3	101.0	NA
98	3	21	M	Filler	52	4	bored	4	99.0	NA
98	3	21	M	Filler	52	4	by	5	68.0	NA
98	3	21	M	Filler	52	4	the	6	149.0	NA
98	3	21	M	Filler	52	4	teacher.	7	134.0	NA
98	3	21	M	Question	52	4	NA	NA	1334.0	1
99	3	21	M	Filler	63	4	The	1	278.0	NA
99	3	21	M	Filler	63	4	bride	2	134.0	NA
99	3	21	M	Filler	63	4	was	3	166.0	NA
99	3	21	M	Filler	63	4	devastated	4	100.0	NA
99	3	21	M	Filler	63	4	to	5	182.0	NA
99	3	21	M	Filler	63	4	lose	6	169.0	NA
99	3	21	M	Filler	63	4	her	7	132.0	NA
99	3	21	M	Filler	63	4	gold	8	84.0	NA
99	3	21	M	Filler	63	4	ring	9	383.0	NA
99	3	21	M	Filler	63	4	with	10	167.0	NA
99	3	21	M	Filler	63	4	a	11	100.0	NA
99	3	21	M	Filler	63	4	gleaming	12	184.0	NA
99	3	21	M	Filler	63	4	diamond	13	333.0	NA
99	3	21	M	Filler	63	4	in	14	133.0	NA
99	3	21	M	Filler	63	4	the	15	267.0	NA
99	3	21	M	Filler	63	4	middle.	16	167.0	NA
99	3	21	M	Question	63	4	NA	NA	900.0	1
100	3	21	M	swets	3	2	The	1	294.0	NA
100	3	21	M	swets	3	2	secretary	2	68.0	NA
100	3	21	M	swets	3	2	of	3	132.0	NA
100	3	21	M	swets	3	2	the	4	84.0	NA
100	3	21	M	swets	3	2	salesman	5	134.0	NA
100	3	21	M	swets	3	2	who	6	117.0	NA
100	3	21	M	swets	3	2	amused	7	167.0	NA
100	3	21	M	swets	3	2	himself	8	84.0	NA
100	3	21	M	swets	3	2	quite	9	134.0	NA
100	3	21	M	swets	3	2	a	10	214.0	NA
100	3	21	M	swets	3	2	bit	11	185.0	NA
100	3	21	M	swets	3	2	was	12	183.0	NA
100	3	21	M	swets	3	2	writing	13	183.0	NA
100	3	21	M	swets	3	2	a	14	182.0	NA
100	3	21	M	swets	3	2	letter	15	200.0	NA
100	3	21	M	swets	3	2	to	16	333.0	NA
100	3	21	M	swets	3	2	the	17	168.0	NA
100	3	21	M	swets	3	2	editor.	18	67.0	NA
100	3	21	M	Question	3	2	NA	NA	1100.0	1
101	3	21	M	Filler	97	5	The	1	312.0	NA
101	3	21	M	Filler	97	5	tall	2	133.0	NA
101	3	21	M	Filler	97	5	man	3	118.0	NA
101	3	21	M	Filler	97	5	laughed	4	165.0	NA
101	3	21	M	Filler	97	5	at	5	116.0	NA
101	3	21	M	Filler	97	5	the	6	152.0	NA
101	3	21	M	Filler	97	5	clumsy	7	133.0	NA
101	3	21	M	Filler	97	5	child	8	152.0	NA
101	3	21	M	Filler	97	5	who	9	165.0	NA
101	3	21	M	Filler	97	5	spilled	10	133.0	NA
101	3	21	M	Filler	97	5	the	11	217.0	NA
101	3	21	M	Filler	97	5	milk	12	133.0	NA
101	3	21	M	Filler	97	5	on	13	99.0	NA
101	3	21	M	Filler	97	5	himself.	14	300.0	NA
101	3	21	M	Question	97	5	NA	NA	1034.0	1
102	3	21	M	Filler	105	5	The	1	677.0	NA
102	3	21	M	Filler	105	5	actors	2	118.0	NA
102	3	21	M	Filler	105	5	rehearsed	3	100.0	NA
102	3	21	M	Filler	105	5	the	4	100.0	NA
102	3	21	M	Filler	105	5	play	5	133.0	NA
102	3	21	M	Filler	105	5	so	6	100.0	NA
102	3	21	M	Filler	105	5	much	7	134.0	NA
102	3	21	M	Filler	105	5	that	8	82.0	NA
102	3	21	M	Filler	105	5	they	9	134.0	NA
102	3	21	M	Filler	105	5	became	10	100.0	NA
102	3	21	M	Filler	105	5	bored	11	135.0	NA
102	3	21	M	Filler	105	5	with	12	83.0	NA
102	3	21	M	Filler	105	5	it.	13	84.0	NA
102	3	21	M	Question	105	5	NA	NA	932.0	1
103	3	21	M	swets	8	1	The	1	245.0	NA
103	3	21	M	swets	8	1	sister	2	133.0	NA
103	3	21	M	swets	8	1	of	3	134.0	NA
103	3	21	M	swets	8	1	the	4	133.0	NA
103	3	21	M	swets	8	1	seamstress	5	166.0	NA
103	3	21	M	swets	8	1	who	6	84.0	NA
103	3	21	M	swets	8	1	entertained	7	165.0	NA
103	3	21	M	swets	8	1	herself	8	102.0	NA
103	3	21	M	swets	8	1	most	9	117.0	NA
103	3	21	M	swets	8	1	evenings	10	99.0	NA
103	3	21	M	swets	8	1	was	11	166.0	NA
103	3	21	M	swets	8	1	reading	12	135.0	NA
103	3	21	M	swets	8	1	a	13	216.0	NA
103	3	21	M	swets	8	1	book.	14	134.0	NA
103	3	21	M	Question	8	1	NA	NA	1265.0	1
104	3	21	M	Filler	68	4	The	1	278.0	NA
104	3	21	M	Filler	68	4	scientist	2	67.0	NA
104	3	21	M	Filler	68	4	published	3	133.0	NA
104	3	21	M	Filler	68	4	a	4	85.0	NA
104	3	21	M	Filler	68	4	paper	5	117.0	NA
104	3	21	M	Filler	68	4	in	6	132.0	NA
104	3	21	M	Filler	68	4	the	7	100.0	NA
104	3	21	M	Filler	68	4	journal	8	100.0	NA
104	3	21	M	Filler	68	4	of	9	117.0	NA
104	3	21	M	Filler	68	4	the	10	83.0	NA
104	3	21	M	Filler	68	4	foreign	11	151.0	NA
104	3	21	M	Filler	68	4	organization.	12	134.0	NA
104	3	21	M	Question	68	4	NA	NA	1082.0	1
105	3	21	M	Filler	40	4	The	1	347.0	NA
105	3	21	M	Filler	40	4	boy's	2	115.0	NA
105	3	21	M	Filler	40	4	mother	3	83.0	NA
105	3	21	M	Filler	40	4	was	4	67.0	NA
105	3	21	M	Filler	40	4	very	5	100.0	NA
105	3	21	M	Filler	40	4	happy	6	100.0	NA
105	3	21	M	Filler	40	4	to	7	66.0	NA
105	3	21	M	Filler	40	4	see	8	117.0	NA
105	3	21	M	Filler	40	4	good	9	134.0	NA
105	3	21	M	Filler	40	4	grades	10	67.0	NA
105	3	21	M	Filler	40	4	on	11	168.0	NA
105	3	21	M	Filler	40	4	his	12	82.0	NA
105	3	21	M	Filler	40	4	report	13	201.0	NA
105	3	21	M	Filler	40	4	card.	14	315.0	NA
105	3	21	M	Question	40	4	NA	NA	834.0	1
106	3	21	M	Filler	114	6	While	1	295.0	NA
106	3	21	M	Filler	114	6	the	2	68.0	NA
106	3	21	M	Filler	114	6	winners	3	100.0	NA
106	3	21	M	Filler	114	6	were	4	66.0	NA
106	3	21	M	Filler	114	6	kissing	5	99.0	NA
106	3	21	M	Filler	114	6	the	6	68.0	NA
106	3	21	M	Filler	114	6	crowd	7	116.0	NA
106	3	21	M	Filler	114	6	cheered	8	67.0	NA
106	3	21	M	Filler	114	6	wildly.	9	133.0	NA
106	3	21	M	Question	114	6	NA	NA	700.0	1
107	3	21	M	Filler	60	4	The	1	280.0	NA
107	3	21	M	Filler	60	4	newlyweds	2	133.0	NA
107	3	21	M	Filler	60	4	were	3	116.0	NA
107	3	21	M	Filler	60	4	nervous	4	133.0	NA
107	3	21	M	Filler	60	4	about	5	101.0	NA
107	3	21	M	Filler	60	4	their	6	150.0	NA
107	3	21	M	Filler	60	4	new	7	166.0	NA
107	3	21	M	Filler	60	4	life	8	199.0	NA
107	3	21	M	Filler	60	4	together.	9	135.0	NA
107	3	21	M	Question	60	4	NA	NA	1066.0	1
108	3	21	M	swets	33	2	The	1	261.0	NA
108	3	21	M	swets	33	2	maid	2	68.0	NA
108	3	21	M	swets	33	2	of	3	116.0	NA
108	3	21	M	swets	33	2	the	4	83.0	NA
108	3	21	M	swets	33	2	actor	5	68.0	NA
108	3	21	M	swets	33	2	who	6	116.0	NA
108	3	21	M	swets	33	2	did	7	151.0	NA
108	3	21	M	swets	33	2	not	8	83.0	NA
108	3	21	M	swets	33	2	like	9	100.0	NA
108	3	21	M	swets	33	2	himself	10	200.0	NA
108	3	21	M	swets	33	2	very	11	166.0	NA
108	3	21	M	swets	33	2	much	12	66.0	NA
108	3	21	M	swets	33	2	caught	13	135.0	NA
108	3	21	M	swets	33	2	the	14	166.0	NA
108	3	21	M	swets	33	2	armed	15	218.0	NA
108	3	21	M	swets	33	2	robber.	16	500.0	NA
108	3	21	M	Question	33	2	NA	NA	2167.0	1
109	3	21	M	Filler	38	4	Despite	1	1462.0	NA
109	3	21	M	Filler	38	4	the	2	151.0	NA
109	3	21	M	Filler	38	4	lack	3	132.0	NA
109	3	21	M	Filler	38	4	of	4	68.0	NA
109	3	21	M	Filler	38	4	publicity	5	132.0	NA
109	3	21	M	Filler	38	4	many	6	134.0	NA
109	3	21	M	Filler	38	4	people	7	150.0	NA
109	3	21	M	Filler	38	4	attended	8	133.0	NA
109	3	21	M	Filler	38	4	the	9	150.0	NA
109	3	21	M	Filler	38	4	lecture.	10	134.0	NA
109	3	21	M	Question	38	4	NA	NA	1167.0	1
110	3	21	M	swets	32	1	The	1	362.0	NA
110	3	21	M	swets	32	1	niece	2	117.0	NA
110	3	21	M	swets	32	1	of	3	116.0	NA
110	3	21	M	swets	32	1	the	4	118.0	NA
110	3	21	M	swets	32	1	duchess	5	134.0	NA
110	3	21	M	swets	32	1	who	6	149.0	NA
110	3	21	M	swets	32	1	looked	7	133.0	NA
110	3	21	M	swets	32	1	at	8	117.0	NA
110	3	21	M	swets	32	1	herself	9	133.0	NA
110	3	21	M	swets	32	1	in	10	166.0	NA
110	3	21	M	swets	32	1	the	11	135.0	NA
110	3	21	M	swets	32	1	mirror	12	149.0	NA
110	3	21	M	swets	32	1	wore	13	168.0	NA
110	3	21	M	swets	32	1	a	14	200.0	NA
110	3	21	M	swets	32	1	blue	15	248.0	NA
110	3	21	M	swets	32	1	shirt.	16	200.0	NA
110	3	21	M	Question	32	1	NA	NA	1067.0	1
111	3	21	M	Filler	55	4	The	1	328.0	NA
111	3	21	M	Filler	55	4	people	2	34.0	NA
111	3	21	M	Filler	55	4	certainly	3	99.0	NA
111	3	21	M	Filler	55	4	admired	4	102.0	NA
111	3	21	M	Filler	55	4	the	5	98.0	NA
111	3	21	M	Filler	55	4	wife	6	100.0	NA
111	3	21	M	Filler	55	4	of	7	69.0	NA
111	3	21	M	Filler	55	4	the	8	131.0	NA
111	3	21	M	Filler	55	4	janitor	9	102.0	NA
111	3	21	M	Filler	55	4	because	10	132.0	NA
111	3	21	M	Filler	55	4	she	11	118.0	NA
111	3	21	M	Filler	55	4	educated	12	133.0	NA
111	3	21	M	Filler	55	4	herself	13	133.0	NA
111	3	21	M	Filler	55	4	at	14	184.0	NA
111	3	21	M	Filler	55	4	night.	15	34.0	NA
111	3	21	M	Question	55	4	NA	NA	2666.0	1
112	3	21	M	Filler	94	5	After	1	544.0	NA
112	3	21	M	Filler	94	5	months	2	134.0	NA
112	3	21	M	Filler	94	5	of	3	149.0	NA
112	3	21	M	Filler	94	5	preparation	4	133.0	NA
112	3	21	M	Filler	94	5	the	5	100.0	NA
112	3	21	M	Filler	94	5	ballerina	6	133.0	NA
112	3	21	M	Filler	94	5	was	7	119.0	NA
112	3	21	M	Filler	94	5	getting	8	165.0	NA
112	3	21	M	Filler	94	5	ready	9	134.0	NA
112	3	21	M	Filler	94	5	for	10	166.0	NA
112	3	21	M	Filler	94	5	opening	11	201.0	NA
112	3	21	M	Filler	94	5	night.	12	382.0	NA
112	3	21	M	Question	94	5	NA	NA	1250.0	1
113	3	21	M	Filler	82	5	The	1	445.0	NA
113	3	21	M	Filler	82	5	patient's	2	134.0	NA
113	3	21	M	Filler	82	5	seizures	3	99.0	NA
113	3	21	M	Filler	82	5	appeared	4	100.0	NA
113	3	21	M	Filler	82	5	to	5	116.0	NA
113	3	21	M	Filler	82	5	have	6	267.0	NA
113	3	21	M	Filler	82	5	been	7	135.0	NA
113	3	21	M	Filler	82	5	eliminated	8	232.0	NA
113	3	21	M	Filler	82	5	by	9	368.0	NA
113	3	21	M	Filler	82	5	the	10	115.0	NA
113	3	21	M	Filler	82	5	surgery.	11	201.0	NA
113	3	21	M	Question	82	5	NA	NA	1367.0	1
114	3	21	M	swets	17	1	The	1	295.0	NA
114	3	21	M	swets	17	1	grandmother	2	132.0	NA
114	3	21	M	swets	17	1	of	3	85.0	NA
114	3	21	M	swets	17	1	the	4	100.0	NA
114	3	21	M	swets	17	1	heiress	5	116.0	NA
114	3	21	M	swets	17	1	who	6	133.0	NA
114	3	21	M	swets	17	1	bankrupted	7	100.0	NA
114	3	21	M	swets	17	1	herself	8	133.0	NA
114	3	21	M	swets	17	1	last	9	133.0	NA
114	3	21	M	swets	17	1	year	10	100.0	NA
114	3	21	M	swets	17	1	still	11	119.0	NA
114	3	21	M	swets	17	1	made	12	165.0	NA
114	3	21	M	swets	17	1	risky	13	167.0	NA
114	3	21	M	swets	17	1	investments.	14	167.0	NA
114	3	21	M	Question	17	1	NA	NA	1000.0	1
115	3	21	M	Filler	132	7	While	1	328.0	NA
115	3	21	M	Filler	132	7	John	2	67.0	NA
115	3	21	M	Filler	132	7	and	3	132.0	NA
115	3	21	M	Filler	132	7	Mary	4	100.0	NA
115	3	21	M	Filler	132	7	kissed	5	67.0	NA
115	3	21	M	Filler	132	7	their	6	134.0	NA
115	3	21	M	Filler	132	7	daughter	7	131.0	NA
115	3	21	M	Filler	132	7	fell	8	117.0	NA
115	3	21	M	Filler	132	7	asleep.	9	118.0	NA
115	3	21	M	Question	132	7	NA	NA	866.0	1
116	3	21	M	Filler	92	5	The	1	328.0	NA
116	3	21	M	Filler	92	5	personal	2	168.0	NA
116	3	21	M	Filler	92	5	trainer	3	100.0	NA
116	3	21	M	Filler	92	5	was	4	151.0	NA
116	3	21	M	Filler	92	5	popular	5	231.0	NA
116	3	21	M	Filler	92	5	among	6	285.0	NA
116	3	21	M	Filler	92	5	athletes	7	265.0	NA
116	3	21	M	Filler	92	5	after	8	300.0	NA
116	3	21	M	Filler	92	5	he	9	51.0	NA
116	3	21	M	Filler	92	5	helped	10	100.0	NA
116	3	21	M	Filler	92	5	the	11	283.0	NA
116	3	21	M	Filler	92	5	bodybuilder	12	66.0	NA
116	3	21	M	Filler	92	5	win	13	151.0	NA
116	3	21	M	Filler	92	5	the	14	285.0	NA
116	3	21	M	Filler	92	5	competition.	15	233.0	NA
116	3	21	M	Question	92	5	NA	NA	2366.0	1
117	3	21	M	swets	26	1	The	1	345.0	NA
117	3	21	M	swets	26	1	grand-nephew	2	67.0	NA
117	3	21	M	swets	26	1	of	3	134.0	NA
117	3	21	M	swets	26	1	the	4	82.0	NA
117	3	21	M	swets	26	1	admiral	5	168.0	NA
117	3	21	M	swets	26	1	who	6	117.0	NA
117	3	21	M	swets	26	1	wrote	7	167.0	NA
117	3	21	M	swets	26	1	himself	8	134.0	NA
117	3	21	M	swets	26	1	a	9	133.0	NA
117	3	21	M	swets	26	1	note	10	200.0	NA
117	3	21	M	swets	26	1	admired	11	132.0	NA
117	3	21	M	swets	26	1	sailors	12	101.0	NA
117	3	21	M	swets	26	1	very	13	183.0	NA
117	3	21	M	swets	26	1	much.	14	267.0	NA
117	3	21	M	Question	26	1	NA	NA	967.0	1
118	3	21	M	Filler	57	4	The	1	278.0	NA
118	3	21	M	Filler	57	4	architect	2	101.0	NA
118	3	21	M	Filler	57	4	was	3	83.0	NA
118	3	21	M	Filler	57	4	embarrassed	4	100.0	NA
118	3	21	M	Filler	57	4	by	5	100.0	NA
118	3	21	M	Filler	57	4	the	6	166.0	NA
118	3	21	M	Filler	57	4	memo	7	101.0	NA
118	3	21	M	Filler	57	4	of	8	82.0	NA
118	3	21	M	Filler	57	4	the	9	101.0	NA
118	3	21	M	Filler	57	4	engineer	10	134.0	NA
118	3	21	M	Filler	57	4	because	11	66.0	NA
118	3	21	M	Filler	57	4	it	12	416.0	NA
118	3	21	M	Filler	57	4	said	13	166.0	NA
118	3	21	M	Filler	57	4	that	14	84.0	NA
118	3	21	M	Filler	57	4	his	15	134.0	NA
118	3	21	M	Filler	57	4	building	16	234.0	NA
118	3	21	M	Filler	57	4	would	17	166.0	NA
118	3	21	M	Filler	57	4	collapse.	18	233.0	NA
118	3	21	M	Question	57	4	NA	NA	1133.0	1
119	3	21	M	Filler	45	4	The	1	279.0	NA
119	3	21	M	Filler	45	4	plumber	2	99.0	NA
119	3	21	M	Filler	45	4	repaired	3	68.0	NA
119	3	21	M	Filler	45	4	the	4	99.0	NA
119	3	21	M	Filler	45	4	sink	5	101.0	NA
119	3	21	M	Filler	45	4	of	6	133.0	NA
119	3	21	M	Filler	45	4	the	7	133.0	NA
119	3	21	M	Filler	45	4	tenant	8	100.0	NA
119	3	21	M	Filler	45	4	because	9	167.0	NA
119	3	21	M	Filler	45	4	he	10	201.0	NA
119	3	21	M	Filler	45	4	had	11	100.0	NA
119	3	21	M	Filler	45	4	just	12	299.0	NA
119	3	21	M	Filler	45	4	moved	13	167.0	NA
119	3	21	M	Filler	45	4	in.	14	284.0	NA
119	3	21	M	Question	45	4	NA	NA	999.0	1
120	3	21	M	Filler	115	6	As	1	296.0	NA
120	3	21	M	Filler	115	6	Elaine	2	99.0	NA
120	3	21	M	Filler	115	6	and	3	100.0	NA
120	3	21	M	Filler	115	6	Robert	4	100.0	NA
120	3	21	M	Filler	115	6	fought	5	135.0	NA
120	3	21	M	Filler	115	6	the	6	165.0	NA
120	3	21	M	Filler	115	6	mosquitoes	7	101.0	NA
120	3	21	M	Filler	115	6	whined	8	133.0	NA
120	3	21	M	Filler	115	6	annoyingly.	9	200.0	NA
120	3	21	M	Question	115	6	NA	NA	1602.0	1
121	3	21	M	Filler	53	4	The	1	462.0	NA
121	3	21	M	Filler	53	4	clay	2	133.0	NA
121	3	21	M	Filler	53	4	pot	3	133.0	NA
121	3	21	M	Filler	53	4	was	4	134.0	NA
121	3	21	M	Filler	53	4	full	5	133.0	NA
121	3	21	M	Filler	53	4	of	6	84.0	NA
121	3	21	M	Filler	53	4	gold	7	100.0	NA
121	3	21	M	Filler	53	4	coins	8	134.0	NA
121	3	21	M	Filler	53	4	and	9	99.0	NA
121	3	21	M	Filler	53	4	the	10	251.0	NA
121	3	21	M	Filler	53	4	thief	11	165.0	NA
121	3	21	M	Filler	53	4	knew	12	102.0	NA
121	3	21	M	Filler	53	4	he	13	167.0	NA
121	3	21	M	Filler	53	4	had	14	182.0	NA
121	3	21	M	Filler	53	4	finally	15	166.0	NA
121	3	21	M	Filler	53	4	hit	16	136.0	NA
121	3	21	M	Filler	53	4	the	17	233.0	NA
121	3	21	M	Filler	53	4	jackpot.	18	132.0	NA
121	3	21	M	Question	53	4	NA	NA	899.0	1
122	3	21	M	swets	34	3	The	1	544.0	NA
122	3	21	M	swets	34	3	waiter	2	34.0	NA
122	3	21	M	swets	34	3	of	3	282.0	NA
122	3	21	M	swets	34	3	the	4	34.0	NA
122	3	21	M	swets	34	3	woman	5	100.0	NA
122	3	21	M	swets	34	3	who	6	83.0	NA
122	3	21	M	swets	34	3	considered	7	133.0	NA
122	3	21	M	swets	34	3	himself	8	133.0	NA
122	3	21	M	swets	34	3	a	9	152.0	NA
122	3	21	M	swets	34	3	natural	10	167.0	NA
122	3	21	M	swets	34	3	beauty	11	165.0	NA
122	3	21	M	swets	34	3	spilled	12	233.0	NA
122	3	21	M	swets	34	3	the	13	167.0	NA
122	3	21	M	swets	34	3	drinks.	14	201.0	NA
122	3	21	M	Question	34	3	NA	NA	1100.0	1
123	3	21	M	Filler	43	4	The	1	380.0	NA
123	3	21	M	Filler	43	4	movie	2	132.0	NA
123	3	21	M	Filler	43	4	director	3	100.0	NA
123	3	21	M	Filler	43	4	refused	4	166.0	NA
123	3	21	M	Filler	43	4	to	5	135.0	NA
123	3	21	M	Filler	43	4	work	6	198.0	NA
123	3	21	M	Filler	43	4	with	7	134.0	NA
123	3	21	M	Filler	43	4	the	8	118.0	NA
123	3	21	M	Filler	43	4	producer	9	265.0	NA
123	3	21	M	Filler	43	4	again	10	117.0	NA
123	3	21	M	Filler	43	4	after	11	68.0	NA
123	3	21	M	Filler	43	4	winning	12	166.0	NA
123	3	21	M	Filler	43	4	the	13	66.0	NA
123	3	21	M	Filler	43	4	grand	14	335.0	NA
123	3	21	M	Filler	43	4	prize.	15	298.0	NA
123	3	21	M	Question	43	4	NA	NA	1068.0	1
124	3	21	M	Filler	120	6	Sarah	1	328.0	NA
124	3	21	M	Filler	120	6	won't	2	100.0	NA
124	3	21	M	Filler	120	6	reveal	3	101.0	NA
124	3	21	M	Filler	120	6	which	4	100.0	NA
124	3	21	M	Filler	120	6	race	5	99.0	NA
124	3	21	M	Filler	120	6	she	6	100.0	NA
124	3	21	M	Filler	120	6	won	7	133.0	NA
124	3	21	M	Filler	120	6	without	8	133.0	NA
124	3	21	M	Filler	120	6	entering	9	300.0	NA
124	3	21	M	Filler	120	6	the	10	66.0	NA
124	3	21	M	Filler	120	6	competition	11	168.0	NA
124	3	21	M	Filler	120	6	for	12	516.0	NA
124	3	21	M	Filler	120	6	officially.	13	100.0	NA
124	3	21	M	Question	120	6	NA	NA	1634.0	1
125	3	21	M	Filler	112	6	As	1	462.0	NA
125	3	21	M	Filler	112	6	the	2	149.0	NA
125	3	21	M	Filler	112	6	dog	3	102.0	NA
125	3	21	M	Filler	112	6	was	4	132.0	NA
125	3	21	M	Filler	112	6	calming	5	100.0	NA
125	3	21	M	Filler	112	6	down	6	151.0	NA
125	3	21	M	Filler	112	6	the	7	150.0	NA
125	3	21	M	Filler	112	6	puppy	8	167.0	NA
125	3	21	M	Filler	112	6	slept	9	133.0	NA
125	3	21	M	Filler	112	6	in	10	166.0	NA
125	3	21	M	Filler	112	6	the	11	119.0	NA
125	3	21	M	Filler	112	6	cage.	12	166.0	NA
125	3	21	M	Question	112	6	NA	NA	1932.0	1
126	3	21	M	Filler	95	5	The	1	280.0	NA
126	3	21	M	Filler	95	5	receptionist	2	132.0	NA
126	3	21	M	Filler	95	5	of	3	100.0	NA
126	3	21	M	Filler	95	5	the	4	68.0	NA
126	3	21	M	Filler	95	5	company	5	133.0	NA
126	3	21	M	Filler	95	5	went	6	133.0	NA
126	3	21	M	Filler	95	5	home	7	133.0	NA
126	3	21	M	Filler	95	5	sick	8	100.0	NA
126	3	21	M	Filler	95	5	before	9	233.0	NA
126	3	21	M	Filler	95	5	moving	10	134.0	NA
126	3	21	M	Filler	95	5	across	11	117.0	NA
126	3	21	M	Filler	95	5	town.	12	168.0	NA
126	3	21	M	Question	95	5	NA	NA	1165.0	1
127	3	21	M	swets	2	1	The	1	379.0	NA
127	3	21	M	swets	2	1	uncle	2	165.0	NA
127	3	21	M	swets	2	1	of	3	102.0	NA
127	3	21	M	swets	2	1	the	4	116.0	NA
127	3	21	M	swets	2	1	fireman	5	166.0	NA
127	3	21	M	swets	2	1	who	6	152.0	NA
127	3	21	M	swets	2	1	criticized	7	164.0	NA
127	3	21	M	swets	2	1	himself	8	102.0	NA
127	3	21	M	swets	2	1	far	9	183.0	NA
127	3	21	M	swets	2	1	too	10	199.0	NA
127	3	21	M	swets	2	1	often	11	134.0	NA
127	3	21	M	swets	2	1	was	12	167.0	NA
127	3	21	M	swets	2	1	painting	13	166.0	NA
127	3	21	M	swets	2	1	the	14	100.0	NA
127	3	21	M	swets	2	1	bedroom.	15	166.0	NA
127	3	21	M	Question	2	1	NA	NA	1336.0	1
128	3	21	M	Filler	100	5	There	1	862.0	NA
128	3	21	M	Filler	100	5	was	2	134.0	NA
128	3	21	M	Filler	100	5	a	3	131.0	NA
128	3	21	M	Filler	100	5	large	4	168.0	NA
128	3	21	M	Filler	100	5	sale	5	101.0	NA
128	3	21	M	Filler	100	5	on	6	132.0	NA
128	3	21	M	Filler	100	5	stationary	7	100.0	NA
128	3	21	M	Filler	100	5	and	8	200.0	NA
128	3	21	M	Filler	100	5	office	9	169.0	NA
128	3	21	M	Filler	100	5	supplies	10	165.0	NA
128	3	21	M	Filler	100	5	at	11	251.0	NA
128	3	21	M	Filler	100	5	the	12	184.0	NA
128	3	21	M	Filler	100	5	student	13	133.0	NA
128	3	21	M	Filler	100	5	bookstore.	14	233.0	NA
128	3	21	M	Question	100	5	NA	NA	1166.0	1
129	3	21	M	Filler	80	5	The	1	312.0	NA
129	3	21	M	Filler	80	5	stepfather	2	134.0	NA
129	3	21	M	Filler	80	5	of	3	116.0	NA
129	3	21	M	Filler	80	5	the	4	133.0	NA
129	3	21	M	Filler	80	5	nun	5	101.0	NA
129	3	21	M	Filler	80	5	with	6	133.0	NA
129	3	21	M	Filler	80	5	a	7	101.0	NA
129	3	21	M	Filler	80	5	long	8	100.0	NA
129	3	21	M	Filler	80	5	white	9	132.0	NA
129	3	21	M	Filler	80	5	beard	10	102.0	NA
129	3	21	M	Filler	80	5	became	11	198.0	NA
129	3	21	M	Filler	80	5	very	12	167.0	NA
129	3	21	M	Filler	80	5	ill.	13	167.0	NA
129	3	21	M	Question	80	5	NA	NA	1100.0	1
130	3	21	M	Filler	93	5	The	1	311.0	NA
130	3	21	M	Filler	93	5	new	2	100.0	NA
130	3	21	M	Filler	93	5	book	3	135.0	NA
130	3	21	M	Filler	93	5	replaced	4	65.0	NA
130	3	21	M	Filler	93	5	the	5	149.0	NA
130	3	21	M	Filler	93	5	work	6	119.0	NA
130	3	21	M	Filler	93	5	of	7	265.0	NA
130	3	21	M	Filler	93	5	the	8	84.0	NA
130	3	21	M	Filler	93	5	leaders	9	168.0	NA
130	3	21	M	Filler	93	5	in	10	233.0	NA
130	3	21	M	Filler	93	5	the	11	117.0	NA
130	3	21	M	Filler	93	5	field	12	133.0	NA
130	3	21	M	Filler	93	5	of	13	300.0	NA
130	3	21	M	Filler	93	5	physical	14	65.0	NA
130	3	21	M	Filler	93	5	chemistry.	15	433.0	NA
130	3	21	M	Question	93	5	NA	NA	1668.0	1
131	3	21	M	Filler	75	5	The	1	312.0	NA
131	3	21	M	Filler	75	5	musician	2	100.0	NA
131	3	21	M	Filler	75	5	shocked	3	98.0	NA
131	3	21	M	Filler	75	5	the	4	69.0	NA
131	3	21	M	Filler	75	5	audience	5	66.0	NA
131	3	21	M	Filler	75	5	because	6	101.0	NA
131	3	21	M	Filler	75	5	they	7	132.0	NA
131	3	21	M	Filler	75	5	did	8	133.0	NA
131	3	21	M	Filler	75	5	not	9	101.0	NA
131	3	21	M	Filler	75	5	realize	10	132.0	NA
131	3	21	M	Filler	75	5	what	11	301.0	NA
131	3	21	M	Filler	75	5	these	12	66.0	NA
131	3	21	M	Filler	75	5	shows	13	368.0	NA
131	3	21	M	Filler	75	5	were	14	150.0	NA
131	3	21	M	Filler	75	5	like.	15	201.0	NA
131	3	21	M	Question	75	5	NA	NA	1166.0	0
132	3	21	M	swets	6	2	The	1	562.0	NA
132	3	21	M	swets	6	2	hostess	2	367.0	NA
132	3	21	M	swets	6	2	of	3	182.0	NA
132	3	21	M	swets	6	2	the	4	184.0	NA
132	3	21	M	swets	6	2	mayor	5	202.0	NA
132	3	21	M	swets	6	2	who	6	198.0	NA
132	3	21	M	swets	6	2	complimented	7	200.0	NA
132	3	21	M	swets	6	2	himself	8	233.0	NA
132	3	21	M	swets	6	2	constantly	9	168.0	NA
132	3	21	M	swets	6	2	was	10	299.0	NA
132	3	21	M	swets	6	2	bothered	11	134.0	NA
132	3	21	M	swets	6	2	by	12	150.0	NA
132	3	21	M	swets	6	2	the	13	84.0	NA
132	3	21	M	swets	6	2	reporter.	14	300.0	NA
132	3	21	M	Question	6	2	NA	NA	1499.0	1
133	3	21	M	Filler	122	6	They	1	394.0	NA
133	3	21	M	Filler	122	6	don't	2	135.0	NA
133	3	21	M	Filler	122	6	know	3	149.0	NA
133	3	21	M	Filler	122	6	which	4	100.0	NA
133	3	21	M	Filler	122	6	family	5	168.0	NA
133	3	21	M	Filler	122	6	the	6	165.0	NA
133	3	21	M	Filler	122	6	hijackers	7	167.0	NA
133	3	21	M	Filler	122	6	held	8	233.0	NA
133	3	21	M	Filler	122	6	hostage	9	168.0	NA
133	3	21	M	Filler	122	6	but	10	183.0	NA
133	3	21	M	Filler	122	6	didn't	11	200.0	NA
133	3	21	M	Filler	122	6	hurt	12	166.0	NA
133	3	21	M	Filler	122	6	the	13	118.0	NA
133	3	21	M	Filler	122	6	children	14	166.0	NA
133	3	21	M	Filler	122	6	of	15	251.0	NA
133	3	21	M	Filler	122	6	too	16	232.0	NA
133	3	21	M	Filler	122	6	much.	17	333.0	NA
133	3	21	M	Question	122	6	NA	NA	1084.0	1
134	3	21	M	swets	18	2	The	1	295.0	NA
134	3	21	M	swets	18	2	niece	2	100.0	NA
134	3	21	M	swets	18	2	of	3	135.0	NA
134	3	21	M	swets	18	2	the	4	116.0	NA
134	3	21	M	swets	18	2	fisherman	5	134.0	NA
134	3	21	M	swets	18	2	who	6	166.0	NA
134	3	21	M	swets	18	2	drowned	7	134.0	NA
134	3	21	M	swets	18	2	himself	8	132.0	NA
134	3	21	M	swets	18	2	in	9	169.0	NA
134	3	21	M	swets	18	2	the	10	165.0	NA
134	3	21	M	swets	18	2	ocean	11	134.0	NA
134	3	21	M	swets	18	2	didn't	12	200.0	NA
134	3	21	M	swets	18	2	know	13	133.0	NA
134	3	21	M	swets	18	2	about	14	168.0	NA
134	3	21	M	swets	18	2	the	15	216.0	NA
134	3	21	M	swets	18	2	tricky	16	100.0	NA
134	3	21	M	swets	18	2	current.	17	299.0	NA
134	3	21	M	Question	18	2	NA	NA	1536.0	1
135	3	21	M	Filler	78	5	The	1	295.0	NA
135	3	21	M	Filler	78	5	customer	2	100.0	NA
135	3	21	M	Filler	78	5	complimented	3	133.0	NA
135	3	21	M	Filler	78	5	the	4	133.0	NA
135	3	21	M	Filler	78	5	store	5	101.0	NA
135	3	21	M	Filler	78	5	keeper	6	133.0	NA
135	3	21	M	Filler	78	5	with	7	167.0	NA
135	3	21	M	Filler	78	5	the	8	165.0	NA
135	3	21	M	Filler	78	5	new	9	102.0	NA
135	3	21	M	Filler	78	5	stock.	10	133.0	NA
135	3	21	M	Question	78	5	NA	NA	1333.0	1
136	3	21	M	swets	20	1	The	1	296.0	NA
136	3	21	M	swets	20	1	brother	2	133.0	NA
136	3	21	M	swets	20	1	of	3	166.0	NA
136	3	21	M	swets	20	1	the	4	101.0	NA
136	3	21	M	swets	20	1	count	5	133.0	NA
136	3	21	M	swets	20	1	who	6	167.0	NA
136	3	21	M	swets	20	1	crippled	7	161.0	NA
136	3	21	M	swets	20	1	himself	8	188.0	NA
136	3	21	M	swets	20	1	by	9	101.0	NA
136	3	21	M	swets	20	1	falling	10	167.0	NA
136	3	21	M	swets	20	1	off	11	134.0	NA
136	3	21	M	swets	20	1	a	12	116.0	NA
136	3	21	M	swets	20	1	horse	13	184.0	NA
136	3	21	M	swets	20	1	took	14	133.0	NA
136	3	21	M	swets	20	1	a	15	166.0	NA
136	3	21	M	swets	20	1	long	16	167.0	NA
136	3	21	M	swets	20	1	time	17	167.0	NA
136	3	21	M	swets	20	1	to	18	167.0	NA
136	3	21	M	swets	20	1	get	19	166.0	NA
136	3	21	M	swets	20	1	over	20	134.0	NA
136	3	21	M	swets	20	1	it.	21	250.0	NA
136	3	21	M	Question	20	1	NA	NA	1098.0	1
137	3	21	M	Filler	90	5	The	1	394.0	NA
137	3	21	M	Filler	90	5	artist	2	134.0	NA
137	3	21	M	Filler	90	5	was	3	100.0	NA
137	3	21	M	Filler	90	5	not	4	134.0	NA
137	3	21	M	Filler	90	5	satisfied	5	133.0	NA
137	3	21	M	Filler	90	5	with	6	135.0	NA
137	3	21	M	Filler	90	5	his	7	300.0	NA
137	3	21	M	Filler	90	5	painting	8	132.0	NA
137	3	21	M	Filler	90	5	because	9	233.0	NA
137	3	21	M	Filler	90	5	the	10	167.0	NA
137	3	21	M	Filler	90	5	shading	11	68.0	NA
137	3	21	M	Filler	90	5	was	12	166.0	NA
137	3	21	M	Filler	90	5	off.	13	266.0	NA
137	3	21	M	Question	90	5	NA	NA	1035.0	1
138	3	21	M	Filler	47	4	The	1	295.0	NA
138	3	21	M	Filler	47	4	boys	2	133.0	NA
138	3	21	M	Filler	47	4	all	3	100.0	NA
138	3	21	M	Filler	47	4	admired	4	100.0	NA
138	3	21	M	Filler	47	4	the	5	101.0	NA
138	3	21	M	Filler	47	4	singer	6	133.0	NA
138	3	21	M	Filler	47	4	of	7	101.0	NA
138	3	21	M	Filler	47	4	the	8	132.0	NA
138	3	21	M	Filler	47	4	song	9	167.0	NA
138	3	21	M	Filler	47	4	with	10	167.0	NA
138	3	21	M	Filler	47	4	the	11	200.0	NA
138	3	21	M	Filler	47	4	long	12	300.0	NA
138	3	21	M	Filler	47	4	eyelashes.	13	133.0	NA
138	3	21	M	Question	47	4	NA	NA	1100.0	1
139	3	21	M	Filler	139	7	Laurie	1	311.0	NA
139	3	21	M	Filler	139	7	asked	2	134.0	NA
139	3	21	M	Filler	139	7	which	3	101.0	NA
139	3	21	M	Filler	139	7	truck	4	100.0	NA
139	3	21	M	Filler	139	7	the	5	133.0	NA
139	3	21	M	Filler	139	7	dealership	6	134.0	NA
139	3	21	M	Filler	139	7	sold	7	166.0	NA
139	3	21	M	Filler	139	7	but	8	167.0	NA
139	3	21	M	Filler	139	7	didn't	9	167.0	NA
139	3	21	M	Filler	139	7	paint	10	166.0	NA
139	3	21	M	Filler	139	7	completely.	11	134.0	NA
139	3	21	M	Question	139	7	NA	NA	1133.0	1
140	3	21	M	Filler	140	7	The	1	296.0	NA
140	3	21	M	Filler	140	7	investigators	2	132.0	NA
140	3	21	M	Filler	140	7	asked	3	133.0	NA
140	3	21	M	Filler	140	7	which	4	100.0	NA
140	3	21	M	Filler	140	7	mansion	5	102.0	NA
140	3	21	M	Filler	140	7	the	6	131.0	NA
140	3	21	M	Filler	140	7	owner	7	119.0	NA
140	3	21	M	Filler	140	7	sold	8	134.0	NA
140	3	21	M	Filler	140	7	and	9	133.0	NA
140	3	21	M	Filler	140	7	didn't	10	165.0	NA
140	3	21	M	Filler	140	7	repair	11	201.0	NA
140	3	21	M	Filler	140	7	ten	12	168.0	NA
140	3	21	M	Filler	140	7	years	13	365.0	NA
140	3	21	M	Filler	140	7	ago.	14	134.0	NA
140	3	21	M	Question	140	7	NA	NA	1232.0	1
141	3	21	M	swets	14	1	The	1	361.0	NA
141	3	21	M	swets	14	1	mother	2	135.0	NA
141	3	21	M	swets	14	1	of	3	133.0	NA
141	3	21	M	swets	14	1	the	4	134.0	NA
141	3	21	M	swets	14	1	nurse	5	132.0	NA
141	3	21	M	swets	14	1	who	6	134.0	NA
141	3	21	M	swets	14	1	injured	7	134.0	NA
141	3	21	M	swets	14	1	herself	8	165.0	NA
141	3	21	M	swets	14	1	last	9	102.0	NA
141	3	21	M	swets	14	1	summer	10	133.0	NA
141	3	21	M	swets	14	1	had	11	133.0	NA
141	3	21	M	swets	14	1	lived	12	134.0	NA
141	3	21	M	swets	14	1	in	13	150.0	NA
141	3	21	M	swets	14	1	Wales.	14	233.0	NA
141	3	21	M	Question	14	1	NA	NA	834.0	1
142	3	21	M	Filler	77	5	Outside	1	295.0	NA
142	3	21	M	Filler	77	5	the	2	68.0	NA
142	3	21	M	Filler	77	5	courthouse	3	133.0	NA
142	3	21	M	Filler	77	5	the	4	100.0	NA
142	3	21	M	Filler	77	5	committee	5	99.0	NA
142	3	21	M	Filler	77	5	awarded	6	101.0	NA
142	3	21	M	Filler	77	5	a	7	100.0	NA
142	3	21	M	Filler	77	5	lifetime	8	133.0	NA
142	3	21	M	Filler	77	5	achievement	9	134.0	NA
142	3	21	M	Filler	77	5	prize	10	233.0	NA
142	3	21	M	Filler	77	5	to	11	233.0	NA
142	3	21	M	Filler	77	5	the	12	234.0	NA
142	3	21	M	Filler	77	5	creator	13	134.0	NA
142	3	21	M	Filler	77	5	of	14	349.0	NA
142	3	21	M	Filler	77	5	the	15	100.0	NA
142	3	21	M	Filler	77	5	sculpture.	16	333.0	NA
142	3	21	M	Question	77	5	NA	NA	2168.0	1
143	3	21	M	Filler	104	5	Despite	1	294.0	NA
143	3	21	M	Filler	104	5	the	2	69.0	NA
143	3	21	M	Filler	104	5	relative	3	99.0	NA
143	3	21	M	Filler	104	5	lack	4	99.0	NA
143	3	21	M	Filler	104	5	of	5	102.0	NA
143	3	21	M	Filler	104	5	rain	6	99.0	NA
143	3	21	M	Filler	104	5	the	7	100.0	NA
143	3	21	M	Filler	104	5	farmer	8	100.0	NA
143	3	21	M	Filler	104	5	harvested	9	101.0	NA
143	3	21	M	Filler	104	5	much	10	132.0	NA
143	3	21	M	Filler	104	5	wheat.	11	133.0	NA
143	3	21	M	Question	104	5	NA	NA	1801.0	1
