trial	subj	age	gender	stimulustype	item	condition	word	position	rt	correct
0	22	19	F	Filler	139	7	Laurie	1	696.0	NA
0	22	19	F	Filler	139	7	asked	2	268.0	NA
0	22	19	F	Filler	139	7	which	3	182.0	NA
0	22	19	F	Filler	139	7	truck	4	117.0	NA
0	22	19	F	Filler	139	7	the	5	100.0	NA
0	22	19	F	Filler	139	7	dealership	6	218.0	NA
0	22	19	F	Filler	139	7	sold	7	283.0	NA
0	22	19	F	Filler	139	7	but	8	118.0	NA
0	22	19	F	Filler	139	7	didn't	9	132.0	NA
0	22	19	F	Filler	139	7	paint	10	184.0	NA
0	22	19	F	Filler	139	7	completely.	11	83.0	NA
0	22	19	F	Question	139	7	NA	NA	2534.0	1
1	22	19	F	swets	17	2	The	1	630.0	NA
1	22	19	F	swets	17	2	bank	2	231.0	NA
1	22	19	F	swets	17	2	manager	3	218.0	NA
1	22	19	F	swets	17	2	of	4	135.0	NA
1	22	19	F	swets	17	2	the	5	181.0	NA
1	22	19	F	swets	17	2	heiress	6	183.0	NA
1	22	19	F	swets	17	2	who	7	268.0	NA
1	22	19	F	swets	17	2	bankrupted	8	215.0	NA
1	22	19	F	swets	17	2	herself	9	166.0	NA
1	22	19	F	swets	17	2	last	10	268.0	NA
1	22	19	F	swets	17	2	year	11	317.0	NA
1	22	19	F	swets	17	2	still	12	300.0	NA
1	22	19	F	swets	17	2	made	13	234.0	NA
1	22	19	F	swets	17	2	risky	14	298.0	NA
1	22	19	F	swets	17	2	investments.	15	268.0	NA
1	22	19	F	Question	17	2	NA	NA	1735.0	1
2	22	19	F	Filler	130	7	While	1	396.0	NA
2	22	19	F	Filler	130	7	Margo	2	231.0	NA
2	22	19	F	Filler	130	7	bathed	3	184.0	NA
2	22	19	F	Filler	130	7	the	4	203.0	NA
2	22	19	F	Filler	130	7	dog	5	249.0	NA
2	22	19	F	Filler	130	7	barked	6	384.0	NA
2	22	19	F	Filler	130	7	in	7	216.0	NA
2	22	19	F	Filler	130	7	the	8	167.0	NA
2	22	19	F	Filler	130	7	yard.	9	150.0	NA
2	22	19	F	Question	130	7	NA	NA	1599.0	1
3	22	19	F	Filler	61	4	The	1	264.0	NA
3	22	19	F	Filler	61	4	lemon	2	250.0	NA
3	22	19	F	Filler	61	4	squirted	3	415.0	NA
3	22	19	F	Filler	61	4	into	4	184.0	NA
3	22	19	F	Filler	61	4	the	5	435.0	NA
3	22	19	F	Filler	61	4	debutante's	6	199.0	NA
3	22	19	F	Filler	61	4	eye	7	182.0	NA
3	22	19	F	Filler	61	4	as	8	752.0	NA
3	22	19	F	Filler	61	4	she	9	266.0	NA
3	22	19	F	Filler	61	4	tried	10	218.0	NA
3	22	19	F	Filler	61	4	to	11	584.0	NA
3	22	19	F	Filler	61	4	impress	12	384.0	NA
3	22	19	F	Filler	61	4	her	13	250.0	NA
3	22	19	F	Filler	61	4	mother's	14	201.0	NA
3	22	19	F	Filler	61	4	society	15	200.0	NA
3	22	19	F	Filler	61	4	friends.	16	197.0	NA
3	22	19	F	Question	61	4	NA	NA	3371.0	1
4	22	19	F	Filler	70	4	The	1	347.0	NA
4	22	19	F	Filler	70	4	warden	2	82.0	NA
4	22	19	F	Filler	70	4	was	3	100.0	NA
4	22	19	F	Filler	70	4	dissatisfied	4	200.0	NA
4	22	19	F	Filler	70	4	with	5	218.0	NA
4	22	19	F	Filler	70	4	the	6	183.0	NA
4	22	19	F	Filler	70	4	decision	7	116.0	NA
4	22	19	F	Filler	70	4	of	8	184.0	NA
4	22	19	F	Filler	70	4	the	9	183.0	NA
4	22	19	F	Filler	70	4	parole	10	134.0	NA
4	22	19	F	Filler	70	4	committee	11	232.0	NA
4	22	19	F	Filler	70	4	to	12	266.0	NA
4	22	19	F	Filler	70	4	pardon	13	352.0	NA
4	22	19	F	Filler	70	4	the	14	251.0	NA
4	22	19	F	Filler	70	4	prisoner.	15	1135.0	NA
4	22	19	F	Question	70	4	NA	NA	1466.0	1
5	22	19	F	Filler	77	5	Outside	1	331.0	NA
5	22	19	F	Filler	77	5	the	2	101.0	NA
5	22	19	F	Filler	77	5	courthouse	3	215.0	NA
5	22	19	F	Filler	77	5	the	4	166.0	NA
5	22	19	F	Filler	77	5	committee	5	169.0	NA
5	22	19	F	Filler	77	5	awarded	6	181.0	NA
5	22	19	F	Filler	77	5	a	7	567.0	NA
5	22	19	F	Filler	77	5	lifetime	8	185.0	NA
5	22	19	F	Filler	77	5	achievement	9	350.0	NA
5	22	19	F	Filler	77	5	prize	10	200.0	NA
5	22	19	F	Filler	77	5	to	11	232.0	NA
5	22	19	F	Filler	77	5	the	12	250.0	NA
5	22	19	F	Filler	77	5	creator	13	133.0	NA
5	22	19	F	Filler	77	5	of	14	217.0	NA
5	22	19	F	Filler	77	5	the	15	283.0	NA
5	22	19	F	Filler	77	5	sculpture.	16	369.0	NA
5	22	19	F	Question	77	5	NA	NA	2267.0	1
6	22	19	F	swets	27	3	The	1	262.0	NA
6	22	19	F	swets	27	3	sister	2	452.0	NA
6	22	19	F	swets	27	3	of	3	668.0	NA
6	22	19	F	swets	27	3	the	4	133.0	NA
6	22	19	F	swets	27	3	butcher	5	150.0	NA
6	22	19	F	swets	27	3	who	6	99.0	NA
6	22	19	F	swets	27	3	invited	7	115.0	NA
6	22	19	F	swets	27	3	herself	8	319.0	NA
6	22	19	F	swets	27	3	to	9	182.0	NA
6	22	19	F	swets	27	3	the	10	116.0	NA
6	22	19	F	swets	27	3	party	11	168.0	NA
6	22	19	F	swets	27	3	enjoyed	12	350.0	NA
6	22	19	F	swets	27	3	it	13	283.0	NA
6	22	19	F	swets	27	3	quite	14	351.0	NA
6	22	19	F	swets	27	3	a	15	267.0	NA
6	22	19	F	swets	27	3	bit.	16	217.0	NA
6	22	19	F	Question	27	3	NA	NA	1167.0	0
7	22	19	F	Filler	126	6	The	1	395.0	NA
7	22	19	F	Filler	126	6	boxes	2	166.0	NA
7	22	19	F	Filler	126	6	and	3	168.0	NA
7	22	19	F	Filler	126	6	hangers	4	251.0	NA
7	22	19	F	Filler	126	6	had	5	182.0	NA
7	22	19	F	Filler	126	6	been	6	267.0	NA
7	22	19	F	Filler	126	6	stuffed	7	218.0	NA
7	22	19	F	Filler	126	6	in	8	202.0	NA
7	22	19	F	Filler	126	6	the	9	1033.0	NA
7	22	19	F	Filler	126	6	closet.	10	233.0	NA
7	22	19	F	Question	126	6	NA	NA	1767.0	1
8	22	19	F	Filler	84	5	While	1	278.0	NA
8	22	19	F	Filler	84	5	talking	2	182.0	NA
8	22	19	F	Filler	84	5	to	3	434.0	NA
8	22	19	F	Filler	84	5	his	4	67.0	NA
8	22	19	F	Filler	84	5	sister	5	132.0	NA
8	22	19	F	Filler	84	5	the	6	119.0	NA
8	22	19	F	Filler	84	5	bishop	7	281.0	NA
8	22	19	F	Filler	84	5	with	8	183.0	NA
8	22	19	F	Filler	84	5	the	9	102.0	NA
8	22	19	F	Filler	84	5	funny	10	234.0	NA
8	22	19	F	Filler	84	5	eyebrows	11	183.0	NA
8	22	19	F	Filler	84	5	advocated	12	250.0	NA
8	22	19	F	Filler	84	5	strange	13	634.0	NA
8	22	19	F	Filler	84	5	beliefs.	14	986.0	NA
8	22	19	F	Question	84	5	NA	NA	3100.0	1
9	22	19	F	swets	13	1	The	1	394.0	NA
9	22	19	F	swets	13	1	great-uncle	2	118.0	NA
9	22	19	F	swets	13	1	of	3	131.0	NA
9	22	19	F	swets	13	1	the	4	569.0	NA
9	22	19	F	swets	13	1	policeman	5	300.0	NA
9	22	19	F	swets	13	1	who	6	116.0	NA
9	22	19	F	swets	13	1	treated	7	84.0	NA
9	22	19	F	swets	13	1	himself	8	84.0	NA
9	22	19	F	swets	13	1	after	9	132.0	NA
9	22	19	F	swets	13	1	the	10	68.0	NA
9	22	19	F	swets	13	1	accident	11	267.0	NA
9	22	19	F	swets	13	1	was	12	367.0	NA
9	22	19	F	swets	13	1	watching	13	231.0	NA
9	22	19	F	swets	13	1	the	14	236.0	NA
9	22	19	F	swets	13	1	news.	15	183.0	NA
9	22	19	F	Question	13	1	NA	NA	1967.0	1
10	22	19	F	Filler	68	4	The	1	712.0	NA
10	22	19	F	Filler	68	4	scientist	2	938.0	NA
10	22	19	F	Filler	68	4	published	3	548.0	NA
10	22	19	F	Filler	68	4	a	4	151.0	NA
10	22	19	F	Filler	68	4	paper	5	133.0	NA
10	22	19	F	Filler	68	4	in	6	167.0	NA
10	22	19	F	Filler	68	4	the	7	782.0	NA
10	22	19	F	Filler	68	4	journal	8	534.0	NA
10	22	19	F	Filler	68	4	of	9	101.0	NA
10	22	19	F	Filler	68	4	the	10	416.0	NA
10	22	19	F	Filler	68	4	foreign	11	85.0	NA
10	22	19	F	Filler	68	4	organization.	12	101.0	NA
10	22	19	F	Question	68	4	NA	NA	1768.0	0
11	22	19	F	Filler	52	4	The	1	346.0	NA
11	22	19	F	Filler	52	4	students	2	98.0	NA
11	22	19	F	Filler	52	4	were	3	117.0	NA
11	22	19	F	Filler	52	4	bored	4	133.0	NA
11	22	19	F	Filler	52	4	by	5	134.0	NA
11	22	19	F	Filler	52	4	the	6	235.0	NA
11	22	19	F	Filler	52	4	teacher.	7	134.0	NA
11	22	19	F	Question	52	4	NA	NA	1301.0	1
12	22	19	F	swets	20	2	The	1	428.0	NA
12	22	19	F	swets	20	2	sister	2	184.0	NA
12	22	19	F	swets	20	2	of	3	367.0	NA
12	22	19	F	swets	20	2	the	4	783.0	NA
12	22	19	F	swets	20	2	count	5	198.0	NA
12	22	19	F	swets	20	2	who	6	703.0	NA
12	22	19	F	swets	20	2	crippled	7	166.0	NA
12	22	19	F	swets	20	2	himself	8	283.0	NA
12	22	19	F	swets	20	2	by	9	200.0	NA
12	22	19	F	swets	20	2	falling	10	234.0	NA
12	22	19	F	swets	20	2	off	11	700.0	NA
12	22	19	F	swets	20	2	a	12	217.0	NA
12	22	19	F	swets	20	2	horse	13	283.0	NA
12	22	19	F	swets	20	2	took	14	148.0	NA
12	22	19	F	swets	20	2	a	15	119.0	NA
12	22	19	F	swets	20	2	long	16	165.0	NA
12	22	19	F	swets	20	2	time	17	219.0	NA
12	22	19	F	swets	20	2	to	18	367.0	NA
12	22	19	F	swets	20	2	get	19	251.0	NA
12	22	19	F	swets	20	2	over	20	349.0	NA
12	22	19	F	swets	20	2	it.	21	186.0	NA
12	22	19	F	Question	20	2	NA	NA	1918.0	1
13	22	19	F	Filler	65	4	Even	1	913.0	NA
13	22	19	F	Filler	65	4	though	2	119.0	NA
13	22	19	F	Filler	65	4	the	3	181.0	NA
13	22	19	F	Filler	65	4	goalie	4	252.0	NA
13	22	19	F	Filler	65	4	had	5	251.0	NA
13	22	19	F	Filler	65	4	a	6	167.0	NA
13	22	19	F	Filler	65	4	bad	7	233.0	NA
13	22	19	F	Filler	65	4	cold	8	199.0	NA
13	22	19	F	Filler	65	4	the	9	167.0	NA
13	22	19	F	Filler	65	4	team	10	168.0	NA
13	22	19	F	Filler	65	4	was	11	148.0	NA
13	22	19	F	Filler	65	4	preparing	12	134.0	NA
13	22	19	F	Filler	65	4	for	13	285.0	NA
13	22	19	F	Filler	65	4	the	14	216.0	NA
13	22	19	F	Filler	65	4	tournament.	15	167.0	NA
13	22	19	F	Question	65	4	NA	NA	1702.0	1
14	22	19	F	Filler	106	5	On	1	413.0	NA
14	22	19	F	Filler	106	5	the	2	133.0	NA
14	22	19	F	Filler	106	5	last	3	133.0	NA
14	22	19	F	Filler	106	5	night	4	118.0	NA
14	22	19	F	Filler	106	5	of	5	133.0	NA
14	22	19	F	Filler	106	5	summer	6	333.0	NA
14	22	19	F	Filler	106	5	camp	7	132.0	NA
14	22	19	F	Filler	106	5	the	8	286.0	NA
14	22	19	F	Filler	106	5	counselors	9	117.0	NA
14	22	19	F	Filler	106	5	let	10	185.0	NA
14	22	19	F	Filler	106	5	the	11	165.0	NA
14	22	19	F	Filler	106	5	children	12	201.0	NA
14	22	19	F	Filler	106	5	stay	13	199.0	NA
14	22	19	F	Filler	106	5	up	14	400.0	NA
14	22	19	F	Filler	106	5	until	15	283.0	NA
14	22	19	F	Filler	106	5	midnight.	16	201.0	NA
14	22	19	F	Question	106	5	NA	NA	1333.0	0
15	22	19	F	swets	15	3	The	1	379.0	NA
15	22	19	F	swets	15	3	husband	2	115.0	NA
15	22	19	F	swets	15	3	of	3	149.0	NA
15	22	19	F	swets	15	3	the	4	118.0	NA
15	22	19	F	swets	15	3	beautician	5	283.0	NA
15	22	19	F	swets	15	3	who	6	118.0	NA
15	22	19	F	swets	15	3	cut	7	150.0	NA
15	22	19	F	swets	15	3	himself	8	398.0	NA
15	22	19	F	swets	15	3	on	9	149.0	NA
15	22	19	F	swets	15	3	the	10	151.0	NA
15	22	19	F	swets	15	3	broken	11	383.0	NA
15	22	19	F	swets	15	3	glass	12	418.0	NA
15	22	19	F	swets	15	3	phoned	13	183.0	NA
15	22	19	F	swets	15	3	for	14	135.0	NA
15	22	19	F	swets	15	3	a	15	117.0	NA
15	22	19	F	swets	15	3	doctor.	16	219.0	NA
15	22	19	F	Question	15	3	NA	NA	1364.0	1
16	22	19	F	Filler	93	5	The	1	296.0	NA
16	22	19	F	Filler	93	5	new	2	134.0	NA
16	22	19	F	Filler	93	5	book	3	115.0	NA
16	22	19	F	Filler	93	5	replaced	4	100.0	NA
16	22	19	F	Filler	93	5	the	5	133.0	NA
16	22	19	F	Filler	93	5	work	6	86.0	NA
16	22	19	F	Filler	93	5	of	7	134.0	NA
16	22	19	F	Filler	93	5	the	8	83.0	NA
16	22	19	F	Filler	93	5	leaders	9	115.0	NA
16	22	19	F	Filler	93	5	in	10	118.0	NA
16	22	19	F	Filler	93	5	the	11	82.0	NA
16	22	19	F	Filler	93	5	field	12	202.0	NA
16	22	19	F	Filler	93	5	of	13	303.0	NA
16	22	19	F	Filler	93	5	physical	14	264.0	NA
16	22	19	F	Filler	93	5	chemistry.	15	717.0	NA
16	22	19	F	Question	93	5	NA	NA	1600.0	1
17	22	19	F	Filler	137	7	When	1	596.0	NA
17	22	19	F	Filler	137	7	Leslie	2	566.0	NA
17	22	19	F	Filler	137	7	was	3	117.0	NA
17	22	19	F	Filler	137	7	sneezing	4	199.0	NA
17	22	19	F	Filler	137	7	her	5	169.0	NA
17	22	19	F	Filler	137	7	friends	6	150.0	NA
17	22	19	F	Filler	137	7	laughed	7	131.0	NA
17	22	19	F	Filler	137	7	at	8	101.0	NA
17	22	19	F	Filler	137	7	her.	9	117.0	NA
17	22	19	F	Question	137	7	NA	NA	1768.0	1
18	22	19	F	Filler	140	7	The	1	279.0	NA
18	22	19	F	Filler	140	7	investigators	2	83.0	NA
18	22	19	F	Filler	140	7	asked	3	182.0	NA
18	22	19	F	Filler	140	7	which	4	168.0	NA
18	22	19	F	Filler	140	7	mansion	5	149.0	NA
18	22	19	F	Filler	140	7	the	6	100.0	NA
18	22	19	F	Filler	140	7	owner	7	419.0	NA
18	22	19	F	Filler	140	7	sold	8	402.0	NA
18	22	19	F	Filler	140	7	and	9	200.0	NA
18	22	19	F	Filler	140	7	didn't	10	198.0	NA
18	22	19	F	Filler	140	7	repair	11	152.0	NA
18	22	19	F	Filler	140	7	ten	12	333.0	NA
18	22	19	F	Filler	140	7	years	13	233.0	NA
18	22	19	F	Filler	140	7	ago.	14	283.0	NA
18	22	19	F	Question	140	7	NA	NA	1569.0	1
19	22	19	F	Filler	44	4	The	1	445.0	NA
19	22	19	F	Filler	44	4	solicitor	2	100.0	NA
19	22	19	F	Filler	44	4	wearing	3	116.0	NA
19	22	19	F	Filler	44	4	the	4	168.0	NA
19	22	19	F	Filler	44	4	new	5	249.0	NA
19	22	19	F	Filler	44	4	tuxedo	6	167.0	NA
19	22	19	F	Filler	44	4	bothered	7	149.0	NA
19	22	19	F	Filler	44	4	a	8	167.0	NA
19	22	19	F	Filler	44	4	man	9	399.0	NA
19	22	19	F	Filler	44	4	from	10	215.0	NA
19	22	19	F	Filler	44	4	New	11	285.0	NA
19	22	19	F	Filler	44	4	York.	12	333.0	NA
19	22	19	F	Question	44	4	NA	NA	3169.0	1
20	22	19	F	Filler	97	5	The	1	362.0	NA
20	22	19	F	Filler	97	5	tall	2	133.0	NA
20	22	19	F	Filler	97	5	man	3	102.0	NA
20	22	19	F	Filler	97	5	laughed	4	115.0	NA
20	22	19	F	Filler	97	5	at	5	119.0	NA
20	22	19	F	Filler	97	5	the	6	101.0	NA
20	22	19	F	Filler	97	5	clumsy	7	98.0	NA
20	22	19	F	Filler	97	5	child	8	366.0	NA
20	22	19	F	Filler	97	5	who	9	352.0	NA
20	22	19	F	Filler	97	5	spilled	10	132.0	NA
20	22	19	F	Filler	97	5	the	11	116.0	NA
20	22	19	F	Filler	97	5	milk	12	219.0	NA
20	22	19	F	Filler	97	5	on	13	99.0	NA
20	22	19	F	Filler	97	5	himself.	14	201.0	NA
20	22	19	F	Question	97	5	NA	NA	1300.0	1
21	22	19	F	swets	26	2	The	1	580.0	NA
21	22	19	F	swets	26	2	grand-niece	2	183.0	NA
21	22	19	F	swets	26	2	of	3	117.0	NA
21	22	19	F	swets	26	2	the	4	151.0	NA
21	22	19	F	swets	26	2	admiral	5	149.0	NA
21	22	19	F	swets	26	2	who	6	450.0	NA
21	22	19	F	swets	26	2	wrote	7	301.0	NA
21	22	19	F	swets	26	2	himself	8	268.0	NA
21	22	19	F	swets	26	2	a	9	151.0	NA
21	22	19	F	swets	26	2	note	10	200.0	NA
21	22	19	F	swets	26	2	admired	11	116.0	NA
21	22	19	F	swets	26	2	sailors	12	132.0	NA
21	22	19	F	swets	26	2	very	13	235.0	NA
21	22	19	F	swets	26	2	much.	14	250.0	NA
21	22	19	F	Question	26	2	NA	NA	1268.0	1
22	22	19	F	Filler	102	5	The	1	397.0	NA
22	22	19	F	Filler	102	5	old	2	100.0	NA
22	22	19	F	Filler	102	5	man	3	151.0	NA
22	22	19	F	Filler	102	5	appeared	4	115.0	NA
22	22	19	F	Filler	102	5	to	5	318.0	NA
22	22	19	F	Filler	102	5	be	6	164.0	NA
22	22	19	F	Filler	102	5	upset	7	185.0	NA
22	22	19	F	Filler	102	5	by	8	100.0	NA
22	22	19	F	Filler	102	5	the	9	151.0	NA
22	22	19	F	Filler	102	5	teenager's	10	165.0	NA
22	22	19	F	Filler	102	5	ignorant	11	333.0	NA
22	22	19	F	Filler	102	5	remark.	12	117.0	NA
22	22	19	F	Question	102	5	NA	NA	3102.0	1
23	22	19	F	Filler	46	4	The	1	329.0	NA
23	22	19	F	Filler	46	4	preacher	2	283.0	NA
23	22	19	F	Filler	46	4	of	3	149.0	NA
23	22	19	F	Filler	46	4	the	4	83.0	NA
23	22	19	F	Filler	46	4	congregation	5	103.0	NA
23	22	19	F	Filler	46	4	had	6	99.0	NA
23	22	19	F	Filler	46	4	given	7	115.0	NA
23	22	19	F	Filler	46	4	a	8	305.0	NA
23	22	19	F	Filler	46	4	sermon	9	99.0	NA
23	22	19	F	Filler	46	4	at	10	215.0	NA
23	22	19	F	Filler	46	4	a	11	417.0	NA
23	22	19	F	Filler	46	4	local	12	350.0	NA
23	22	19	F	Filler	46	4	school.	13	168.0	NA
23	22	19	F	Question	46	4	NA	NA	2399.0	1
24	22	19	F	swets	32	2	The	1	427.0	NA
24	22	19	F	swets	32	2	nephew	2	135.0	NA
24	22	19	F	swets	32	2	of	3	99.0	NA
24	22	19	F	swets	32	2	the	4	467.0	NA
24	22	19	F	swets	32	2	duchess	5	117.0	NA
24	22	19	F	swets	32	2	who	6	117.0	NA
24	22	19	F	swets	32	2	looked	7	132.0	NA
24	22	19	F	swets	32	2	at	8	168.0	NA
24	22	19	F	swets	32	2	herself	9	150.0	NA
24	22	19	F	swets	32	2	in	10	200.0	NA
24	22	19	F	swets	32	2	the	11	300.0	NA
24	22	19	F	swets	32	2	mirror	12	182.0	NA
24	22	19	F	swets	32	2	wore	13	303.0	NA
24	22	19	F	swets	32	2	a	14	151.0	NA
24	22	19	F	swets	32	2	blue	15	166.0	NA
24	22	19	F	swets	32	2	shirt.	16	318.0	NA
24	22	19	F	Question	32	2	NA	NA	1235.0	1
25	22	19	F	Filler	110	6	While	1	378.0	NA
25	22	19	F	Filler	110	6	the	2	84.0	NA
25	22	19	F	Filler	110	6	lawyer	3	183.0	NA
25	22	19	F	Filler	110	6	was	4	317.0	NA
25	22	19	F	Filler	110	6	reading	5	537.0	NA
25	22	19	F	Filler	110	6	the	6	99.0	NA
25	22	19	F	Filler	110	6	will	7	66.0	NA
25	22	19	F	Filler	110	6	the	8	101.0	NA
25	22	19	F	Filler	110	6	contract	9	81.0	NA
25	22	19	F	Filler	110	6	remained	10	218.0	NA
25	22	19	F	Filler	110	6	on	11	117.0	NA
25	22	19	F	Filler	110	6	the	12	133.0	NA
25	22	19	F	Filler	110	6	desk.	13	216.0	NA
25	22	19	F	Question	110	6	NA	NA	1267.0	1
26	22	19	F	Filler	107	5	The	1	579.0	NA
26	22	19	F	Filler	107	5	citizens	2	281.0	NA
26	22	19	F	Filler	107	5	were	3	133.0	NA
26	22	19	F	Filler	107	5	dissatisfied	4	69.0	NA
26	22	19	F	Filler	107	5	with	5	267.0	NA
26	22	19	F	Filler	107	5	the	6	97.0	NA
26	22	19	F	Filler	107	5	mayor	7	117.0	NA
26	22	19	F	Filler	107	5	of	8	119.0	NA
26	22	19	F	Filler	107	5	town	9	100.0	NA
26	22	19	F	Filler	107	5	because	10	133.0	NA
26	22	19	F	Filler	107	5	he	11	234.0	NA
26	22	19	F	Filler	107	5	had	12	133.0	NA
26	22	19	F	Filler	107	5	little	13	100.0	NA
26	22	19	F	Filler	107	5	experience.	14	283.0	NA
26	22	19	F	Question	107	5	NA	NA	1338.0	1
27	22	19	F	Filler	43	4	The	1	297.0	NA
27	22	19	F	Filler	43	4	movie	2	100.0	NA
27	22	19	F	Filler	43	4	director	3	149.0	NA
27	22	19	F	Filler	43	4	refused	4	84.0	NA
27	22	19	F	Filler	43	4	to	5	165.0	NA
27	22	19	F	Filler	43	4	work	6	152.0	NA
27	22	19	F	Filler	43	4	with	7	100.0	NA
27	22	19	F	Filler	43	4	the	8	134.0	NA
27	22	19	F	Filler	43	4	producer	9	131.0	NA
27	22	19	F	Filler	43	4	again	10	135.0	NA
27	22	19	F	Filler	43	4	after	11	149.0	NA
27	22	19	F	Filler	43	4	winning	12	119.0	NA
27	22	19	F	Filler	43	4	the	13	150.0	NA
27	22	19	F	Filler	43	4	grand	14	166.0	NA
27	22	19	F	Filler	43	4	prize.	15	268.0	NA
27	22	19	F	Question	43	4	NA	NA	1201.0	1
28	22	19	F	Filler	98	5	The	1	362.0	NA
28	22	19	F	Filler	98	5	husband	2	166.0	NA
28	22	19	F	Filler	98	5	of	3	119.0	NA
28	22	19	F	Filler	98	5	the	4	83.0	NA
28	22	19	F	Filler	98	5	bestselling	5	99.0	NA
28	22	19	F	Filler	98	5	novelist	6	102.0	NA
28	22	19	F	Filler	98	5	was	7	302.0	NA
28	22	19	F	Filler	98	5	into	8	182.0	NA
28	22	19	F	Filler	98	5	collecting	9	166.0	NA
28	22	19	F	Filler	98	5	antiques.	10	334.0	NA
28	22	19	F	Question	98	5	NA	NA	2534.0	1
29	22	19	F	Filler	67	4	The	1	462.0	NA
29	22	19	F	Filler	67	4	restaurant	2	132.0	NA
29	22	19	F	Filler	67	4	was	3	67.0	NA
29	22	19	F	Filler	67	4	famous	4	83.0	NA
29	22	19	F	Filler	67	4	for	5	168.0	NA
29	22	19	F	Filler	67	4	its	6	117.0	NA
29	22	19	F	Filler	67	4	French	7	67.0	NA
29	22	19	F	Filler	67	4	pastries	8	315.0	NA
29	22	19	F	Filler	67	4	and	9	150.0	NA
29	22	19	F	Filler	67	4	fine	10	85.0	NA
29	22	19	F	Filler	67	4	wines.	11	117.0	NA
29	22	19	F	Question	67	4	NA	NA	4702.0	1
30	22	19	F	Filler	135	7	While	1	496.0	NA
30	22	19	F	Filler	135	7	Donna	2	102.0	NA
30	22	19	F	Filler	135	7	and	3	131.0	NA
30	22	19	F	Filler	135	7	Scott	4	101.0	NA
30	22	19	F	Filler	135	7	met	5	83.0	NA
30	22	19	F	Filler	135	7	their	6	100.0	NA
30	22	19	F	Filler	135	7	agent	7	133.0	NA
30	22	19	F	Filler	135	7	some	8	83.0	NA
30	22	19	F	Filler	135	7	friends	9	118.0	NA
30	22	19	F	Filler	135	7	called	10	148.0	NA
30	22	19	F	Filler	135	7	and	11	168.0	NA
30	22	19	F	Filler	135	7	left	12	131.0	NA
30	22	19	F	Filler	135	7	a	13	102.0	NA
30	22	19	F	Filler	135	7	message.	14	334.0	NA
30	22	19	F	Question	135	7	NA	NA	7374.0	0
31	22	19	F	Filler	127	7	While	1	1463.0	NA
31	22	19	F	Filler	127	7	Linda	2	131.0	NA
31	22	19	F	Filler	127	7	wrote	3	68.0	NA
31	22	19	F	Filler	127	7	the	4	135.0	NA
31	22	19	F	Filler	127	7	letter	5	133.0	NA
31	22	19	F	Filler	127	7	arrived	6	149.0	NA
31	22	19	F	Filler	127	7	from	7	86.0	NA
31	22	19	F	Filler	127	7	Chicago.	8	100.0	NA
31	22	19	F	Question	127	7	NA	NA	2000.0	0
32	22	19	F	Filler	89	5	Jim	1	594.0	NA
32	22	19	F	Filler	89	5	watered	2	166.0	NA
32	22	19	F	Filler	89	5	the	3	102.0	NA
32	22	19	F	Filler	89	5	tropical	4	133.0	NA
32	22	19	F	Filler	89	5	plants	5	202.0	NA
32	22	19	F	Filler	89	5	of	6	167.0	NA
32	22	19	F	Filler	89	5	his	7	182.0	NA
32	22	19	F	Filler	89	5	neighbor	8	135.0	NA
32	22	19	F	Filler	89	5	because	9	133.0	NA
32	22	19	F	Filler	89	5	she	10	134.0	NA
32	22	19	F	Filler	89	5	had	11	165.0	NA
32	22	19	F	Filler	89	5	gone	12	102.0	NA
32	22	19	F	Filler	89	5	out	13	149.0	NA
32	22	19	F	Filler	89	5	of	14	215.0	NA
32	22	19	F	Filler	89	5	town	15	201.0	NA
32	22	19	F	Filler	89	5	for	16	317.0	NA
32	22	19	F	Filler	89	5	a	17	133.0	NA
32	22	19	F	Filler	89	5	few	18	168.0	NA
32	22	19	F	Filler	89	5	days.	19	215.0	NA
32	22	19	F	Question	89	5	NA	NA	2205.0	1
33	22	19	F	Filler	37	4	The	1	580.0	NA
33	22	19	F	Filler	37	4	party	2	67.0	NA
33	22	19	F	Filler	37	4	attracted	3	181.0	NA
33	22	19	F	Filler	37	4	the	4	118.0	NA
33	22	19	F	Filler	37	4	fraternity	5	68.0	NA
33	22	19	F	Filler	37	4	members	6	82.0	NA
33	22	19	F	Filler	37	4	whose	7	170.0	NA
33	22	19	F	Filler	37	4	house	8	99.0	NA
33	22	19	F	Filler	37	4	had	9	133.0	NA
33	22	19	F	Filler	37	4	been	10	200.0	NA
33	22	19	F	Filler	37	4	seized	11	116.0	NA
33	22	19	F	Filler	37	4	by	12	101.0	NA
33	22	19	F	Filler	37	4	drug	13	135.0	NA
33	22	19	F	Filler	37	4	agents.	14	83.0	NA
33	22	19	F	Question	37	4	NA	NA	1300.0	1
34	22	19	F	Filler	111	6	While	1	531.0	NA
34	22	19	F	Filler	111	6	the	2	133.0	NA
34	22	19	F	Filler	111	6	clown	3	33.0	NA
34	22	19	F	Filler	111	6	juggled	4	133.0	NA
34	22	19	F	Filler	111	6	the	5	167.0	NA
34	22	19	F	Filler	111	6	balls	6	201.0	NA
34	22	19	F	Filler	111	6	fell	7	149.0	NA
34	22	19	F	Filler	111	6	to	8	85.0	NA
34	22	19	F	Filler	111	6	the	9	116.0	NA
34	22	19	F	Filler	111	6	ground.	10	165.0	NA
34	22	19	F	Question	111	6	NA	NA	1169.0	1
35	22	19	F	swets	12	3	The	1	414.0	NA
35	22	19	F	swets	12	3	son	2	135.0	NA
35	22	19	F	swets	12	3	of	3	100.0	NA
35	22	19	F	swets	12	3	the	4	117.0	NA
35	22	19	F	swets	12	3	princess	5	283.0	NA
35	22	19	F	swets	12	3	who	6	200.0	NA
35	22	19	F	swets	12	3	scratched	7	117.0	NA
35	22	19	F	swets	12	3	herself	8	99.0	NA
35	22	19	F	swets	12	3	in	9	101.0	NA
35	22	19	F	swets	12	3	public	10	315.0	NA
35	22	19	F	swets	12	3	was	11	383.0	NA
35	22	19	F	swets	12	3	terribly	12	551.0	NA
35	22	19	F	swets	12	3	humiliated.	13	251.0	NA
35	22	19	F	Question	12	3	NA	NA	3270.0	1
36	22	19	F	Filler	92	5	The	1	630.0	NA
36	22	19	F	Filler	92	5	personal	2	97.0	NA
36	22	19	F	Filler	92	5	trainer	3	71.0	NA
36	22	19	F	Filler	92	5	was	4	99.0	NA
36	22	19	F	Filler	92	5	popular	5	249.0	NA
36	22	19	F	Filler	92	5	among	6	100.0	NA
36	22	19	F	Filler	92	5	athletes	7	134.0	NA
36	22	19	F	Filler	92	5	after	8	117.0	NA
36	22	19	F	Filler	92	5	he	9	100.0	NA
36	22	19	F	Filler	92	5	helped	10	115.0	NA
36	22	19	F	Filler	92	5	the	11	101.0	NA
36	22	19	F	Filler	92	5	bodybuilder	12	115.0	NA
36	22	19	F	Filler	92	5	win	13	101.0	NA
36	22	19	F	Filler	92	5	the	14	233.0	NA
36	22	19	F	Filler	92	5	competition.	15	216.0	NA
36	22	19	F	Question	92	5	NA	NA	2220.0	1
37	22	19	F	Filler	134	7	As	1	345.0	NA
37	22	19	F	Filler	134	7	Shawnie	2	100.0	NA
37	22	19	F	Filler	134	7	and	3	135.0	NA
37	22	19	F	Filler	134	7	Nick	4	166.0	NA
37	22	19	F	Filler	134	7	were	5	200.0	NA
37	22	19	F	Filler	134	7	embracing	6	49.0	NA
37	22	19	F	Filler	134	7	the	7	135.0	NA
37	22	19	F	Filler	134	7	doctor	8	116.0	NA
37	22	19	F	Filler	134	7	the	9	167.0	NA
37	22	19	F	Filler	134	7	visitor	10	149.0	NA
37	22	19	F	Filler	134	7	entered	11	150.0	NA
37	22	19	F	Filler	134	7	the	12	118.0	NA
37	22	19	F	Filler	134	7	room.	13	550.0	NA
37	22	19	F	Question	134	7	NA	NA	2402.0	1
38	22	19	F	Filler	56	4	The	1	664.0	NA
38	22	19	F	Filler	56	4	actor	2	133.0	NA
38	22	19	F	Filler	56	4	said	3	101.0	NA
38	22	19	F	Filler	56	4	the	4	165.0	NA
38	22	19	F	Filler	56	4	audiences	5	83.0	NA
38	22	19	F	Filler	56	4	believed	6	83.0	NA
38	22	19	F	Filler	56	4	the	7	316.0	NA
38	22	19	F	Filler	56	4	nasty	8	101.0	NA
38	22	19	F	Filler	56	4	remarks	9	117.0	NA
38	22	19	F	Filler	56	4	made	10	117.0	NA
38	22	19	F	Filler	56	4	by	11	266.0	NA
38	22	19	F	Filler	56	4	the	12	116.0	NA
38	22	19	F	Filler	56	4	film	13	134.0	NA
38	22	19	F	Filler	56	4	critic.	14	167.0	NA
38	22	19	F	Question	56	4	NA	NA	1936.0	1
39	22	19	F	Filler	54	4	The	1	363.0	NA
39	22	19	F	Filler	54	4	video	2	348.0	NA
39	22	19	F	Filler	54	4	screen	3	101.0	NA
39	22	19	F	Filler	54	4	of	4	81.0	NA
39	22	19	F	Filler	54	4	the	5	219.0	NA
39	22	19	F	Filler	54	4	monitor	6	66.0	NA
39	22	19	F	Filler	54	4	made	7	933.0	NA
39	22	19	F	Filler	54	4	strange	8	403.0	NA
39	22	19	F	Filler	54	4	noises	9	1551.0	NA
39	22	19	F	Filler	54	4	and	10	100.0	NA
39	22	19	F	Filler	54	4	started	11	165.0	NA
39	22	19	F	Filler	54	4	emitting	12	83.0	NA
39	22	19	F	Filler	54	4	strange	13	85.0	NA
39	22	19	F	Filler	54	4	flashes.	14	115.0	NA
39	22	19	F	Question	54	4	NA	NA	2004.0	1
40	22	19	F	swets	11	2	The	1	346.0	NA
40	22	19	F	swets	11	2	mother	2	84.0	NA
40	22	19	F	swets	11	2	of	3	117.0	NA
40	22	19	F	swets	11	2	the	4	115.0	NA
40	22	19	F	swets	11	2	surgeon	5	267.0	NA
40	22	19	F	swets	11	2	who	6	102.0	NA
40	22	19	F	swets	11	2	made	7	114.0	NA
40	22	19	F	swets	11	2	a	8	301.0	NA
40	22	19	F	swets	11	2	fool	9	166.0	NA
40	22	19	F	swets	11	2	of	10	217.0	NA
40	22	19	F	swets	11	2	himself	11	167.0	NA
40	22	19	F	swets	11	2	at	12	150.0	NA
40	22	19	F	swets	11	2	the	13	151.0	NA
40	22	19	F	swets	11	2	party	14	216.0	NA
40	22	19	F	swets	11	2	was	15	152.0	NA
40	22	19	F	swets	11	2	greatly	16	117.0	NA
40	22	19	F	swets	11	2	embarrassed.	17	217.0	NA
40	22	19	F	Question	11	2	NA	NA	1401.0	1
41	22	19	F	Filler	136	7	While	1	712.0	NA
41	22	19	F	Filler	136	7	Mark	2	49.0	NA
41	22	19	F	Filler	136	7	and	3	118.0	NA
41	22	19	F	Filler	136	7	Jenny	4	333.0	NA
41	22	19	F	Filler	136	7	were	5	101.0	NA
41	22	19	F	Filler	136	7	cuddling	6	233.0	NA
41	22	19	F	Filler	136	7	the	7	366.0	NA
41	22	19	F	Filler	136	7	older	8	234.0	NA
41	22	19	F	Filler	136	7	dogs	9	134.0	NA
41	22	19	F	Filler	136	7	the	10	82.0	NA
41	22	19	F	Filler	136	7	puppies	11	185.0	NA
41	22	19	F	Filler	136	7	nipped	12	348.0	NA
41	22	19	F	Filler	136	7	at	13	234.0	NA
41	22	19	F	Filler	136	7	their	14	283.0	NA
41	22	19	F	Filler	136	7	feet.	15	167.0	NA
41	22	19	F	Question	136	7	NA	NA	1835.0	1
42	22	19	F	Filler	50	4	The	1	363.0	NA
42	22	19	F	Filler	50	4	new	2	48.0	NA
42	22	19	F	Filler	50	4	language	3	183.0	NA
42	22	19	F	Filler	50	4	requirement	4	269.0	NA
42	22	19	F	Filler	50	4	made	5	134.0	NA
42	22	19	F	Filler	50	4	all	6	98.0	NA
42	22	19	F	Filler	50	4	the	7	251.0	NA
42	22	19	F	Filler	50	4	students	8	149.0	NA
42	22	19	F	Filler	50	4	say	9	119.0	NA
42	22	19	F	Filler	50	4	bad	10	114.0	NA
42	22	19	F	Filler	50	4	things	11	400.0	NA
42	22	19	F	Filler	50	4	about	12	136.0	NA
42	22	19	F	Filler	50	4	the	13	132.0	NA
42	22	19	F	Filler	50	4	dean	14	117.0	NA
42	22	19	F	Filler	50	4	of	15	316.0	NA
42	22	19	F	Filler	50	4	the	16	151.0	NA
42	22	19	F	Filler	50	4	college.	17	282.0	NA
42	22	19	F	Question	50	4	NA	NA	1369.0	1
43	22	19	F	Filler	138	7	While	1	1564.0	NA
43	22	19	F	Filler	138	7	Pedro	2	82.0	NA
43	22	19	F	Filler	138	7	was	3	82.0	NA
43	22	19	F	Filler	138	7	swimming	4	119.0	NA
43	22	19	F	Filler	138	7	the	5	198.0	NA
43	22	19	F	Filler	138	7	lifeguard	6	234.0	NA
43	22	19	F	Filler	138	7	sat	7	117.0	NA
43	22	19	F	Filler	138	7	in	8	167.0	NA
43	22	19	F	Filler	138	7	his	9	200.0	NA
43	22	19	F	Filler	138	7	chair.	10	135.0	NA
43	22	19	F	Question	138	7	NA	NA	1534.0	1
44	22	19	F	swets	3	3	The	1	479.0	NA
44	22	19	F	swets	3	3	secretary	2	99.0	NA
44	22	19	F	swets	3	3	of	3	85.0	NA
44	22	19	F	swets	3	3	the	4	83.0	NA
44	22	19	F	swets	3	3	salesman	5	114.0	NA
44	22	19	F	swets	3	3	who	6	70.0	NA
44	22	19	F	swets	3	3	amused	7	250.0	NA
44	22	19	F	swets	3	3	herself	8	117.0	NA
44	22	19	F	swets	3	3	quite	9	117.0	NA
44	22	19	F	swets	3	3	a	10	167.0	NA
44	22	19	F	swets	3	3	bit	11	149.0	NA
44	22	19	F	swets	3	3	was	12	266.0	NA
44	22	19	F	swets	3	3	writing	13	200.0	NA
44	22	19	F	swets	3	3	a	14	168.0	NA
44	22	19	F	swets	3	3	letter	15	183.0	NA
44	22	19	F	swets	3	3	to	16	284.0	NA
44	22	19	F	swets	3	3	the	17	133.0	NA
44	22	19	F	swets	3	3	editor.	18	132.0	NA
44	22	19	F	Question	3	3	NA	NA	1468.0	1
45	22	19	F	Filler	114	6	While	1	297.0	NA
45	22	19	F	Filler	114	6	the	2	131.0	NA
45	22	19	F	Filler	114	6	winners	3	118.0	NA
45	22	19	F	Filler	114	6	were	4	66.0	NA
45	22	19	F	Filler	114	6	kissing	5	183.0	NA
45	22	19	F	Filler	114	6	the	6	183.0	NA
45	22	19	F	Filler	114	6	crowd	7	152.0	NA
45	22	19	F	Filler	114	6	cheered	8	133.0	NA
45	22	19	F	Filler	114	6	wildly.	9	116.0	NA
45	22	19	F	Question	114	6	NA	NA	1537.0	1
46	22	19	F	Filler	49	4	The	1	2011.0	NA
46	22	19	F	Filler	49	4	construction	2	169.0	NA
46	22	19	F	Filler	49	4	worker	3	116.0	NA
46	22	19	F	Filler	49	4	sued	4	99.0	NA
46	22	19	F	Filler	49	4	the	5	134.0	NA
46	22	19	F	Filler	49	4	son	6	84.0	NA
46	22	19	F	Filler	49	4	of	7	118.0	NA
46	22	19	F	Filler	49	4	that	8	100.0	NA
46	22	19	F	Filler	49	4	greedy	9	100.0	NA
46	22	19	F	Filler	49	4	banker.	10	149.0	NA
46	22	19	F	Question	49	4	NA	NA	2984.0	1
47	22	19	F	swets	9	3	The	1	378.0	NA
47	22	19	F	swets	9	3	father	2	117.0	NA
47	22	19	F	swets	9	3	of	3	117.0	NA
47	22	19	F	swets	9	3	the	4	82.0	NA
47	22	19	F	swets	9	3	schoolgirl	5	117.0	NA
47	22	19	F	swets	9	3	who	6	117.0	NA
47	22	19	F	swets	9	3	burned	7	200.0	NA
47	22	19	F	swets	9	3	himself	8	132.0	NA
47	22	19	F	swets	9	3	the	9	119.0	NA
47	22	19	F	swets	9	3	other	10	165.0	NA
47	22	19	F	swets	9	3	day	11	185.0	NA
47	22	19	F	swets	9	3	was	12	283.0	NA
47	22	19	F	swets	9	3	usually	13	116.0	NA
47	22	19	F	swets	9	3	very	14	134.0	NA
47	22	19	F	swets	9	3	careful.	15	149.0	NA
47	22	19	F	Question	9	3	NA	NA	1503.0	1
48	22	19	F	Filler	122	6	They	1	995.0	NA
48	22	19	F	Filler	122	6	don't	2	135.0	NA
48	22	19	F	Filler	122	6	know	3	248.0	NA
48	22	19	F	Filler	122	6	which	4	118.0	NA
48	22	19	F	Filler	122	6	family	5	100.0	NA
48	22	19	F	Filler	122	6	the	6	84.0	NA
48	22	19	F	Filler	122	6	hijackers	7	82.0	NA
48	22	19	F	Filler	122	6	held	8	68.0	NA
48	22	19	F	Filler	122	6	hostage	9	235.0	NA
48	22	19	F	Filler	122	6	but	10	548.0	NA
48	22	19	F	Filler	122	6	didn't	11	169.0	NA
48	22	19	F	Filler	122	6	hurt	12	82.0	NA
48	22	19	F	Filler	122	6	the	13	134.0	NA
48	22	19	F	Filler	122	6	children	14	231.0	NA
48	22	19	F	Filler	122	6	of	15	369.0	NA
48	22	19	F	Filler	122	6	too	16	134.0	NA
48	22	19	F	Filler	122	6	much.	17	316.0	NA
48	22	19	F	Question	122	6	NA	NA	1133.0	1
49	22	19	F	Filler	116	6	As	1	429.0	NA
49	22	19	F	Filler	116	6	the	2	82.0	NA
49	22	19	F	Filler	116	6	survivors	3	133.0	NA
49	22	19	F	Filler	116	6	were	4	100.0	NA
49	22	19	F	Filler	116	6	embracing	5	117.0	NA
49	22	19	F	Filler	116	6	the	6	100.0	NA
49	22	19	F	Filler	116	6	firefighter	7	83.0	NA
49	22	19	F	Filler	116	6	coughed	8	99.0	NA
49	22	19	F	Filler	116	6	violently.	9	100.0	NA
49	22	19	F	Question	116	6	NA	NA	1334.0	1
50	22	19	F	Filler	96	5	The	1	445.0	NA
50	22	19	F	Filler	96	5	evil	2	118.0	NA
50	22	19	F	Filler	96	5	man	3	166.0	NA
50	22	19	F	Filler	96	5	watched	4	117.0	NA
50	22	19	F	Filler	96	5	the	5	200.0	NA
50	22	19	F	Filler	96	5	doorway	6	98.0	NA
50	22	19	F	Filler	96	5	of	7	167.0	NA
50	22	19	F	Filler	96	5	the	8	185.0	NA
50	22	19	F	Filler	96	5	bar	9	166.0	NA
50	22	19	F	Filler	96	5	every	10	366.0	NA
50	22	19	F	Filler	96	5	Friday	11	167.0	NA
50	22	19	F	Filler	96	5	night.	12	350.0	NA
50	22	19	F	Question	96	5	NA	NA	1836.0	1
51	22	19	F	swets	29	2	The	1	2281.0	NA
51	22	19	F	swets	29	2	daughter	2	117.0	NA
51	22	19	F	swets	29	2	of	3	100.0	NA
51	22	19	F	swets	29	2	the	4	100.0	NA
51	22	19	F	swets	29	2	colonel	5	102.0	NA
51	22	19	F	swets	29	2	who	6	131.0	NA
51	22	19	F	swets	29	2	enjoyed	7	102.0	NA
51	22	19	F	swets	29	2	himself	8	116.0	NA
51	22	19	F	swets	29	2	a	9	183.0	NA
51	22	19	F	swets	29	2	lot	10	118.0	NA
51	22	19	F	swets	29	2	was	11	117.0	NA
51	22	19	F	swets	29	2	out	12	149.0	NA
51	22	19	F	swets	29	2	on	13	151.0	NA
51	22	19	F	swets	29	2	the	14	150.0	NA
51	22	19	F	swets	29	2	balcony.	15	266.0	NA
51	22	19	F	Question	29	2	NA	NA	1402.0	1
52	22	19	F	Filler	99	5	The	1	846.0	NA
52	22	19	F	Filler	99	5	daring	2	66.0	NA
52	22	19	F	Filler	99	5	photographer	3	134.0	NA
52	22	19	F	Filler	99	5	captured	4	84.0	NA
52	22	19	F	Filler	99	5	the	5	166.0	NA
52	22	19	F	Filler	99	5	image	6	184.0	NA
52	22	19	F	Filler	99	5	of	7	134.0	NA
52	22	19	F	Filler	99	5	the	8	116.0	NA
52	22	19	F	Filler	99	5	destruction	9	117.0	NA
52	22	19	F	Filler	99	5	as	10	100.0	NA
52	22	19	F	Filler	99	5	it	11	152.0	NA
52	22	19	F	Filler	99	5	devastated	12	200.0	NA
52	22	19	F	Filler	99	5	the	13	167.0	NA
52	22	19	F	Filler	99	5	village.	14	184.0	NA
52	22	19	F	Question	99	5	NA	NA	1802.0	1
53	22	19	F	Filler	123	6	The	1	2129.0	NA
53	22	19	F	Filler	123	6	student	2	68.0	NA
53	22	19	F	Filler	123	6	and	3	67.0	NA
53	22	19	F	Filler	123	6	professor	4	84.0	NA
53	22	19	F	Filler	123	6	went	5	49.0	NA
53	22	19	F	Filler	123	6	for	6	85.0	NA
53	22	19	F	Filler	123	6	a	7	34.0	NA
53	22	19	F	Filler	123	6	walk	8	297.0	NA
53	22	19	F	Filler	123	6	last	9	320.0	NA
53	22	19	F	Filler	123	6	Tuesday.	10	82.0	NA
53	22	19	F	Question	123	6	NA	NA	2271.0	1
54	22	19	F	Filler	132	7	While	1	395.0	NA
54	22	19	F	Filler	132	7	John	2	52.0	NA
54	22	19	F	Filler	132	7	and	3	117.0	NA
54	22	19	F	Filler	132	7	Mary	4	282.0	NA
54	22	19	F	Filler	132	7	kissed	5	84.0	NA
54	22	19	F	Filler	132	7	their	6	100.0	NA
54	22	19	F	Filler	132	7	daughter	7	115.0	NA
54	22	19	F	Filler	132	7	fell	8	251.0	NA
54	22	19	F	Filler	132	7	asleep.	9	283.0	NA
54	22	19	F	Question	132	7	NA	NA	2004.0	1
55	22	19	F	Filler	74	5	My	1	361.0	NA
55	22	19	F	Filler	74	5	former	2	102.0	NA
55	22	19	F	Filler	74	5	girlfriend	3	165.0	NA
55	22	19	F	Filler	74	5	criticized	4	151.0	NA
55	22	19	F	Filler	74	5	the	5	32.0	NA
55	22	19	F	Filler	74	5	author's	6	300.0	NA
55	22	19	F	Filler	74	5	agent	7	151.0	NA
55	22	19	F	Filler	74	5	because	8	118.0	NA
55	22	19	F	Filler	74	5	he	9	33.0	NA
55	22	19	F	Filler	74	5	had	10	168.0	NA
55	22	19	F	Filler	74	5	failed	11	297.0	NA
55	22	19	F	Filler	74	5	to	12	236.0	NA
55	22	19	F	Filler	74	5	meet	13	165.0	NA
55	22	19	F	Filler	74	5	a	14	218.0	NA
55	22	19	F	Filler	74	5	deadline.	15	151.0	NA
55	22	19	F	Question	74	5	NA	NA	1882.0	1
56	22	19	F	swets	5	2	The	1	612.0	NA
56	22	19	F	swets	5	2	aunt	2	100.0	NA
56	22	19	F	swets	5	2	of	3	67.0	NA
56	22	19	F	swets	5	2	the	4	149.0	NA
56	22	19	F	swets	5	2	bishop	5	66.0	NA
56	22	19	F	swets	5	2	who	6	135.0	NA
56	22	19	F	swets	5	2	injured	7	165.0	NA
56	22	19	F	swets	5	2	himself	8	152.0	NA
56	22	19	F	swets	5	2	last	9	133.0	NA
56	22	19	F	swets	5	2	summer	10	332.0	NA
56	22	19	F	swets	5	2	was	11	184.0	NA
56	22	19	F	swets	5	2	concerned	12	166.0	NA
56	22	19	F	swets	5	2	about	13	116.0	NA
56	22	19	F	swets	5	2	the	14	118.0	NA
56	22	19	F	swets	5	2	infection.	15	132.0	NA
56	22	19	F	Question	5	2	NA	NA	2152.0	1
57	22	19	F	Filler	75	5	The	1	428.0	NA
57	22	19	F	Filler	75	5	musician	2	83.0	NA
57	22	19	F	Filler	75	5	shocked	3	99.0	NA
57	22	19	F	Filler	75	5	the	4	119.0	NA
57	22	19	F	Filler	75	5	audience	5	183.0	NA
57	22	19	F	Filler	75	5	because	6	435.0	NA
57	22	19	F	Filler	75	5	they	7	201.0	NA
57	22	19	F	Filler	75	5	did	8	316.0	NA
57	22	19	F	Filler	75	5	not	9	166.0	NA
57	22	19	F	Filler	75	5	realize	10	201.0	NA
57	22	19	F	Filler	75	5	what	11	399.0	NA
57	22	19	F	Filler	75	5	these	12	134.0	NA
57	22	19	F	Filler	75	5	shows	13	115.0	NA
57	22	19	F	Filler	75	5	were	14	268.0	NA
57	22	19	F	Filler	75	5	like.	15	233.0	NA
57	22	19	F	Question	75	5	NA	NA	1668.0	1
58	22	19	F	Filler	105	5	The	1	362.0	NA
58	22	19	F	Filler	105	5	actors	2	567.0	NA
58	22	19	F	Filler	105	5	rehearsed	3	300.0	NA
58	22	19	F	Filler	105	5	the	4	584.0	NA
58	22	19	F	Filler	105	5	play	5	99.0	NA
58	22	19	F	Filler	105	5	so	6	167.0	NA
58	22	19	F	Filler	105	5	much	7	200.0	NA
58	22	19	F	Filler	105	5	that	8	134.0	NA
58	22	19	F	Filler	105	5	they	9	149.0	NA
58	22	19	F	Filler	105	5	became	10	220.0	NA
58	22	19	F	Filler	105	5	bored	11	232.0	NA
58	22	19	F	Filler	105	5	with	12	216.0	NA
58	22	19	F	Filler	105	5	it.	13	301.0	NA
58	22	19	F	Question	105	5	NA	NA	1433.0	1
59	22	19	F	swets	1	1	The	1	397.0	NA
59	22	19	F	swets	1	1	sister	2	99.0	NA
59	22	19	F	swets	1	1	of	3	118.0	NA
59	22	19	F	swets	1	1	the	4	367.0	NA
59	22	19	F	swets	1	1	actress	5	102.0	NA
59	22	19	F	swets	1	1	who	6	181.0	NA
59	22	19	F	swets	1	1	called	7	168.0	NA
59	22	19	F	swets	1	1	attention	8	133.0	NA
59	22	19	F	swets	1	1	to	9	117.0	NA
59	22	19	F	swets	1	1	herself	10	115.0	NA
59	22	19	F	swets	1	1	on	11	335.0	NA
59	22	19	F	swets	1	1	the	12	183.0	NA
59	22	19	F	swets	1	1	balcony	13	133.0	NA
59	22	19	F	swets	1	1	was	14	201.0	NA
59	22	19	F	swets	1	1	under	15	266.0	NA
59	22	19	F	swets	1	1	investigation.	16	167.0	NA
59	22	19	F	Question	1	1	NA	NA	1202.0	1
60	22	19	F	Filler	58	4	The	1	294.0	NA
60	22	19	F	Filler	58	4	white	2	102.0	NA
60	22	19	F	Filler	58	4	dog	3	83.0	NA
60	22	19	F	Filler	58	4	bit	4	117.0	NA
60	22	19	F	Filler	58	4	the	5	132.0	NA
60	22	19	F	Filler	58	4	ankle	6	68.0	NA
60	22	19	F	Filler	58	4	of	7	299.0	NA
60	22	19	F	Filler	58	4	the	8	83.0	NA
60	22	19	F	Filler	58	4	child.	9	300.0	NA
60	22	19	F	Question	58	4	NA	NA	1935.0	1
61	22	19	F	Filler	115	6	As	1	310.0	NA
61	22	19	F	Filler	115	6	Elaine	2	69.0	NA
61	22	19	F	Filler	115	6	and	3	132.0	NA
61	22	19	F	Filler	115	6	Robert	4	151.0	NA
61	22	19	F	Filler	115	6	fought	5	85.0	NA
61	22	19	F	Filler	115	6	the	6	186.0	NA
61	22	19	F	Filler	115	6	mosquitoes	7	133.0	NA
61	22	19	F	Filler	115	6	whined	8	131.0	NA
61	22	19	F	Filler	115	6	annoyingly.	9	236.0	NA
61	22	19	F	Question	115	6	NA	NA	1200.0	1
62	22	19	F	Filler	55	4	The	1	512.0	NA
62	22	19	F	Filler	55	4	people	2	184.0	NA
62	22	19	F	Filler	55	4	certainly	3	149.0	NA
62	22	19	F	Filler	55	4	admired	4	69.0	NA
62	22	19	F	Filler	55	4	the	5	81.0	NA
62	22	19	F	Filler	55	4	wife	6	350.0	NA
62	22	19	F	Filler	55	4	of	7	102.0	NA
62	22	19	F	Filler	55	4	the	8	83.0	NA
62	22	19	F	Filler	55	4	janitor	9	51.0	NA
62	22	19	F	Filler	55	4	because	10	167.0	NA
62	22	19	F	Filler	55	4	she	11	167.0	NA
62	22	19	F	Filler	55	4	educated	12	199.0	NA
62	22	19	F	Filler	55	4	herself	13	484.0	NA
62	22	19	F	Filler	55	4	at	14	334.0	NA
62	22	19	F	Filler	55	4	night.	15	116.0	NA
62	22	19	F	Question	55	4	NA	NA	1533.0	1
63	22	19	F	Filler	40	4	The	1	497.0	NA
63	22	19	F	Filler	40	4	boy's	2	315.0	NA
63	22	19	F	Filler	40	4	mother	3	134.0	NA
63	22	19	F	Filler	40	4	was	4	115.0	NA
63	22	19	F	Filler	40	4	very	5	70.0	NA
63	22	19	F	Filler	40	4	happy	6	132.0	NA
63	22	19	F	Filler	40	4	to	7	67.0	NA
63	22	19	F	Filler	40	4	see	8	200.0	NA
63	22	19	F	Filler	40	4	good	9	150.0	NA
63	22	19	F	Filler	40	4	grades	10	415.0	NA
63	22	19	F	Filler	40	4	on	11	351.0	NA
63	22	19	F	Filler	40	4	his	12	169.0	NA
63	22	19	F	Filler	40	4	report	13	98.0	NA
63	22	19	F	Filler	40	4	card.	14	250.0	NA
63	22	19	F	Question	40	4	NA	NA	1036.0	1
64	22	19	F	swets	22	1	The	1	478.0	NA
64	22	19	F	swets	22	1	nephew	2	184.0	NA
64	22	19	F	swets	22	1	of	3	150.0	NA
64	22	19	F	swets	22	1	the	4	268.0	NA
64	22	19	F	swets	22	1	commander	5	302.0	NA
64	22	19	F	swets	22	1	who	6	283.0	NA
64	22	19	F	swets	22	1	calmed	7	148.0	NA
64	22	19	F	swets	22	1	himself	8	151.0	NA
64	22	19	F	swets	22	1	after	9	82.0	NA
64	22	19	F	swets	22	1	the	10	151.0	NA
64	22	19	F	swets	22	1	tragedy	11	183.0	NA
64	22	19	F	swets	22	1	was	12	168.0	NA
64	22	19	F	swets	22	1	waiting	13	283.0	NA
64	22	19	F	swets	22	1	for	14	202.0	NA
64	22	19	F	swets	22	1	the	15	115.0	NA
64	22	19	F	swets	22	1	doctor.	16	149.0	NA
64	22	19	F	Question	22	1	NA	NA	1652.0	1
65	22	19	F	Filler	104	5	Despite	1	1198.0	NA
65	22	19	F	Filler	104	5	the	2	99.0	NA
65	22	19	F	Filler	104	5	relative	3	116.0	NA
65	22	19	F	Filler	104	5	lack	4	50.0	NA
65	22	19	F	Filler	104	5	of	5	149.0	NA
65	22	19	F	Filler	104	5	rain	6	150.0	NA
65	22	19	F	Filler	104	5	the	7	168.0	NA
65	22	19	F	Filler	104	5	farmer	8	115.0	NA
65	22	19	F	Filler	104	5	harvested	9	167.0	NA
65	22	19	F	Filler	104	5	much	10	99.0	NA
65	22	19	F	Filler	104	5	wheat.	11	151.0	NA
65	22	19	F	Question	104	5	NA	NA	1236.0	1
66	22	19	F	Filler	78	5	The	1	512.0	NA
66	22	19	F	Filler	78	5	customer	2	150.0	NA
66	22	19	F	Filler	78	5	complimented	3	502.0	NA
66	22	19	F	Filler	78	5	the	4	115.0	NA
66	22	19	F	Filler	78	5	store	5	116.0	NA
66	22	19	F	Filler	78	5	keeper	6	100.0	NA
66	22	19	F	Filler	78	5	with	7	120.0	NA
66	22	19	F	Filler	78	5	the	8	131.0	NA
66	22	19	F	Filler	78	5	new	9	269.0	NA
66	22	19	F	Filler	78	5	stock.	10	1016.0	NA
66	22	19	F	Question	78	5	NA	NA	2200.0	1
67	22	19	F	Filler	125	6	The	1	530.0	NA
67	22	19	F	Filler	125	6	bosses	2	149.0	NA
67	22	19	F	Filler	125	6	and	3	517.0	NA
67	22	19	F	Filler	125	6	secretaries	4	282.0	NA
67	22	19	F	Filler	125	6	took	5	416.0	NA
67	22	19	F	Filler	125	6	a	6	133.0	NA
67	22	19	F	Filler	125	6	long	7	151.0	NA
67	22	19	F	Filler	125	6	lunch	8	134.0	NA
67	22	19	F	Filler	125	6	together	9	200.0	NA
67	22	19	F	Filler	125	6	every	10	165.0	NA
67	22	19	F	Filler	125	6	Friday.	11	136.0	NA
67	22	19	F	Question	125	6	NA	NA	2233.0	1
68	22	19	F	swets	18	3	The	1	896.0	NA
68	22	19	F	swets	18	3	niece	2	99.0	NA
68	22	19	F	swets	18	3	of	3	83.0	NA
68	22	19	F	swets	18	3	the	4	100.0	NA
68	22	19	F	swets	18	3	fisherman	5	50.0	NA
68	22	19	F	swets	18	3	who	6	86.0	NA
68	22	19	F	swets	18	3	drowned	7	85.0	NA
68	22	19	F	swets	18	3	herself	8	81.0	NA
68	22	19	F	swets	18	3	in	9	84.0	NA
68	22	19	F	swets	18	3	the	10	267.0	NA
68	22	19	F	swets	18	3	ocean	11	116.0	NA
68	22	19	F	swets	18	3	didn't	12	416.0	NA
68	22	19	F	swets	18	3	know	13	152.0	NA
68	22	19	F	swets	18	3	about	14	116.0	NA
68	22	19	F	swets	18	3	the	15	200.0	NA
68	22	19	F	swets	18	3	tricky	16	151.0	NA
68	22	19	F	swets	18	3	current.	17	183.0	NA
68	22	19	F	Question	18	3	NA	NA	1801.0	1
69	22	19	F	Filler	45	4	The	1	1263.0	NA
69	22	19	F	Filler	45	4	plumber	2	50.0	NA
69	22	19	F	Filler	45	4	repaired	3	84.0	NA
69	22	19	F	Filler	45	4	the	4	83.0	NA
69	22	19	F	Filler	45	4	sink	5	83.0	NA
69	22	19	F	Filler	45	4	of	6	318.0	NA
69	22	19	F	Filler	45	4	the	7	115.0	NA
69	22	19	F	Filler	45	4	tenant	8	118.0	NA
69	22	19	F	Filler	45	4	because	9	333.0	NA
69	22	19	F	Filler	45	4	he	10	302.0	NA
69	22	19	F	Filler	45	4	had	11	199.0	NA
69	22	19	F	Filler	45	4	just	12	149.0	NA
69	22	19	F	Filler	45	4	moved	13	102.0	NA
69	22	19	F	Filler	45	4	in.	14	151.0	NA
69	22	19	F	Question	45	4	NA	NA	1698.0	1
70	22	19	F	swets	25	1	The	1	731.0	NA
70	22	19	F	swets	25	1	grandmother	2	100.0	NA
70	22	19	F	swets	25	1	of	3	284.0	NA
70	22	19	F	swets	25	1	the	4	82.0	NA
70	22	19	F	swets	25	1	stewardess	5	48.0	NA
70	22	19	F	swets	25	1	who	6	552.0	NA
70	22	19	F	swets	25	1	treated	7	151.0	NA
70	22	19	F	swets	25	1	herself	8	132.0	NA
70	22	19	F	swets	25	1	to	9	83.0	NA
70	22	19	F	swets	25	1	an	10	383.0	NA
70	22	19	F	swets	25	1	ice-cream	11	301.0	NA
70	22	19	F	swets	25	1	cone	12	216.0	NA
70	22	19	F	swets	25	1	was	13	252.0	NA
70	22	19	F	swets	25	1	waiting	14	83.0	NA
70	22	19	F	swets	25	1	at	15	434.0	NA
70	22	19	F	swets	25	1	home.	16	167.0	NA
70	22	19	F	Question	25	1	NA	NA	1335.0	1
71	22	19	F	Filler	119	6	Everybody	1	1164.0	NA
71	22	19	F	Filler	119	6	is	2	130.0	NA
71	22	19	F	Filler	119	6	wondering	3	51.0	NA
71	22	19	F	Filler	119	6	which	4	116.0	NA
71	22	19	F	Filler	119	6	software	5	136.0	NA
71	22	19	F	Filler	119	6	Gary	6	168.0	NA
71	22	19	F	Filler	119	6	installed	7	134.0	NA
71	22	19	F	Filler	119	6	without	8	182.0	NA
71	22	19	F	Filler	119	6	buying	9	233.0	NA
71	22	19	F	Filler	119	6	last	10	117.0	NA
71	22	19	F	Filler	119	6	June.	11	118.0	NA
71	22	19	F	Question	119	6	NA	NA	1831.0	1
72	22	19	F	swets	28	1	The	1	380.0	NA
72	22	19	F	swets	28	1	sister	2	66.0	NA
72	22	19	F	swets	28	1	of	3	118.0	NA
72	22	19	F	swets	28	1	the	4	97.0	NA
72	22	19	F	swets	28	1	baroness	5	85.0	NA
72	22	19	F	swets	28	1	who	6	67.0	NA
72	22	19	F	swets	28	1	admired	7	100.0	NA
72	22	19	F	swets	28	1	herself	8	101.0	NA
72	22	19	F	swets	28	1	an	9	99.0	NA
72	22	19	F	swets	28	1	inordinate	10	133.0	NA
72	22	19	F	swets	28	1	amount	11	135.0	NA
72	22	19	F	swets	28	1	enjoyed	12	199.0	NA
72	22	19	F	swets	28	1	all	13	50.0	NA
72	22	19	F	swets	28	1	the	14	201.0	NA
72	22	19	F	swets	28	1	attention.	15	149.0	NA
72	22	19	F	Question	28	1	NA	NA	1903.0	1
73	22	19	F	Filler	79	5	Although	1	913.0	NA
73	22	19	F	Filler	79	5	the	2	115.0	NA
73	22	19	F	Filler	79	5	mechanic	3	68.0	NA
73	22	19	F	Filler	79	5	said	4	66.0	NA
73	22	19	F	Filler	79	5	the	5	67.0	NA
73	22	19	F	Filler	79	5	job	6	99.0	NA
73	22	19	F	Filler	79	5	would	7	118.0	NA
73	22	19	F	Filler	79	5	take	8	133.0	NA
73	22	19	F	Filler	79	5	four	9	83.0	NA
73	22	19	F	Filler	79	5	days	10	99.0	NA
73	22	19	F	Filler	79	5	the	11	134.0	NA
73	22	19	F	Filler	79	5	client	12	168.0	NA
73	22	19	F	Filler	79	5	didn't	13	101.0	NA
73	22	19	F	Filler	79	5	receive	14	151.0	NA
73	22	19	F	Filler	79	5	her	15	265.0	NA
73	22	19	F	Filler	79	5	car	16	217.0	NA
73	22	19	F	Filler	79	5	for	17	285.0	NA
73	22	19	F	Filler	79	5	six	18	250.0	NA
73	22	19	F	Filler	79	5	weeks.	19	318.0	NA
73	22	19	F	Question	79	5	NA	NA	3769.0	1
74	22	19	F	Filler	133	7	While	1	5483.0	NA
74	22	19	F	Filler	133	7	the	2	117.0	NA
74	22	19	F	Filler	133	7	lawyers	3	115.0	NA
74	22	19	F	Filler	133	7	fought	4	101.0	NA
74	22	19	F	Filler	133	7	the	5	65.0	NA
74	22	19	F	Filler	133	7	ruling	6	100.0	NA
74	22	19	F	Filler	133	7	the	7	118.0	NA
74	22	19	F	Filler	133	7	judge	8	65.0	NA
74	22	19	F	Filler	133	7	announced	9	269.0	NA
74	22	19	F	Filler	133	7	the	10	349.0	NA
74	22	19	F	Filler	133	7	decision.	11	135.0	NA
74	22	19	F	Question	133	7	NA	NA	2532.0	1
75	22	19	F	Filler	109	6	While	1	6802.0	NA
75	22	19	F	Filler	109	6	the	2	116.0	NA
75	22	19	F	Filler	109	6	farmer	3	117.0	NA
75	22	19	F	Filler	109	6	steered	4	83.0	NA
75	22	19	F	Filler	109	6	the	5	267.0	NA
75	22	19	F	Filler	109	6	truck	6	50.0	NA
75	22	19	F	Filler	109	6	the	7	150.0	NA
75	22	19	F	Filler	109	6	tractor	8	134.0	NA
75	22	19	F	Filler	109	6	pulled	9	184.0	NA
75	22	19	F	Filler	109	6	the	10	149.0	NA
75	22	19	F	Filler	109	6	plough.	11	217.0	NA
75	22	19	F	Question	109	6	NA	NA	1769.0	1
76	22	19	F	Filler	124	6	The	1	2362.0	NA
76	22	19	F	Filler	124	6	mothers	2	83.0	NA
76	22	19	F	Filler	124	6	and	3	70.0	NA
76	22	19	F	Filler	124	6	teachers	4	99.0	NA
76	22	19	F	Filler	124	6	played	5	118.0	NA
76	22	19	F	Filler	124	6	tennis	6	83.0	NA
76	22	19	F	Filler	124	6	after	7	284.0	NA
76	22	19	F	Filler	124	6	the	8	166.0	NA
76	22	19	F	Filler	124	6	kids	9	117.0	NA
76	22	19	F	Filler	124	6	left.	10	82.0	NA
76	22	19	F	Question	124	6	NA	NA	1836.0	1
77	22	19	F	swets	19	1	The	1	328.0	NA
77	22	19	F	swets	19	1	neighbor	2	66.0	NA
77	22	19	F	swets	19	1	of	3	84.0	NA
77	22	19	F	swets	19	1	the	4	232.0	NA
77	22	19	F	swets	19	1	actor	5	85.0	NA
77	22	19	F	swets	19	1	who	6	50.0	NA
77	22	19	F	swets	19	1	hated	7	82.0	NA
77	22	19	F	swets	19	1	himself	8	102.0	NA
77	22	19	F	swets	19	1	for	9	98.0	NA
77	22	19	F	swets	19	1	lying	10	300.0	NA
77	22	19	F	swets	19	1	left	11	118.0	NA
77	22	19	F	swets	19	1	town	12	115.0	NA
77	22	19	F	swets	19	1	in	13	100.0	NA
77	22	19	F	swets	19	1	a	14	118.0	NA
77	22	19	F	swets	19	1	hurry.	15	367.0	NA
77	22	19	F	Question	19	1	NA	NA	1968.0	1
78	22	19	F	Filler	118	6	As	1	2229.0	NA
78	22	19	F	Filler	118	6	the	2	85.0	NA
78	22	19	F	Filler	118	6	dog	3	101.0	NA
78	22	19	F	Filler	118	6	ran	4	84.0	NA
78	22	19	F	Filler	118	6	Wanda	5	65.0	NA
78	22	19	F	Filler	118	6	watched	6	84.0	NA
78	22	19	F	Filler	118	6	from	7	84.0	NA
78	22	19	F	Filler	118	6	the	8	400.0	NA
78	22	19	F	Filler	118	6	window.	9	66.0	NA
78	22	19	F	Question	118	6	NA	NA	2935.0	1
79	22	19	F	swets	7	1	The	1	462.0	NA
79	22	19	F	swets	7	1	niece	2	34.0	NA
79	22	19	F	swets	7	1	of	3	117.0	NA
79	22	19	F	swets	7	1	the	4	101.0	NA
79	22	19	F	swets	7	1	waitress	5	82.0	NA
79	22	19	F	swets	7	1	who	6	99.0	NA
79	22	19	F	swets	7	1	hurt	7	83.0	NA
79	22	19	F	swets	7	1	herself	8	84.0	NA
79	22	19	F	swets	7	1	on	9	99.0	NA
79	22	19	F	swets	7	1	the	10	300.0	NA
79	22	19	F	swets	7	1	bicycle	11	169.0	NA
79	22	19	F	swets	7	1	was	12	67.0	NA
79	22	19	F	swets	7	1	angry	13	433.0	NA
79	22	19	F	swets	7	1	about	14	383.0	NA
79	22	19	F	swets	7	1	the	15	120.0	NA
79	22	19	F	swets	7	1	incident.	16	216.0	NA
79	22	19	F	Question	7	1	NA	NA	1468.0	1
80	22	19	F	Filler	95	5	The	1	596.0	NA
80	22	19	F	Filler	95	5	receptionist	2	68.0	NA
80	22	19	F	Filler	95	5	of	3	115.0	NA
80	22	19	F	Filler	95	5	the	4	117.0	NA
80	22	19	F	Filler	95	5	company	5	134.0	NA
80	22	19	F	Filler	95	5	went	6	250.0	NA
80	22	19	F	Filler	95	5	home	7	101.0	NA
80	22	19	F	Filler	95	5	sick	8	82.0	NA
80	22	19	F	Filler	95	5	before	9	119.0	NA
80	22	19	F	Filler	95	5	moving	10	132.0	NA
80	22	19	F	Filler	95	5	across	11	450.0	NA
80	22	19	F	Filler	95	5	town.	12	118.0	NA
80	22	19	F	Question	95	5	NA	NA	28186.0	0
81	22	19	F	Filler	100	5	There	1	548.0	NA
81	22	19	F	Filler	100	5	was	2	266.0	NA
81	22	19	F	Filler	100	5	a	3	233.0	NA
81	22	19	F	Filler	100	5	large	4	68.0	NA
81	22	19	F	Filler	100	5	sale	5	65.0	NA
81	22	19	F	Filler	100	5	on	6	84.0	NA
81	22	19	F	Filler	100	5	stationary	7	99.0	NA
81	22	19	F	Filler	100	5	and	8	100.0	NA
81	22	19	F	Filler	100	5	office	9	83.0	NA
81	22	19	F	Filler	100	5	supplies	10	133.0	NA
81	22	19	F	Filler	100	5	at	11	67.0	NA
81	22	19	F	Filler	100	5	the	12	148.0	NA
81	22	19	F	Filler	100	5	student	13	318.0	NA
81	22	19	F	Filler	100	5	bookstore.	14	301.0	NA
81	22	19	F	Question	100	5	NA	NA	1784.0	1
82	22	19	F	swets	33	3	The	1	296.0	NA
82	22	19	F	swets	33	3	maid	2	33.0	NA
82	22	19	F	swets	33	3	of	3	149.0	NA
82	22	19	F	swets	33	3	the	4	84.0	NA
82	22	19	F	swets	33	3	actor	5	67.0	NA
82	22	19	F	swets	33	3	who	6	84.0	NA
82	22	19	F	swets	33	3	did	7	49.0	NA
82	22	19	F	swets	33	3	not	8	67.0	NA
82	22	19	F	swets	33	3	like	9	99.0	NA
82	22	19	F	swets	33	3	herself	10	50.0	NA
82	22	19	F	swets	33	3	very	11	168.0	NA
82	22	19	F	swets	33	3	much	12	149.0	NA
82	22	19	F	swets	33	3	caught	13	151.0	NA
82	22	19	F	swets	33	3	the	14	148.0	NA
82	22	19	F	swets	33	3	armed	15	318.0	NA
82	22	19	F	swets	33	3	robber.	16	102.0	NA
82	22	19	F	Question	33	3	NA	NA	4819.0	1
83	22	19	F	Filler	82	5	The	1	863.0	NA
83	22	19	F	Filler	82	5	patient's	2	99.0	NA
83	22	19	F	Filler	82	5	seizures	3	67.0	NA
83	22	19	F	Filler	82	5	appeared	4	68.0	NA
83	22	19	F	Filler	82	5	to	5	82.0	NA
83	22	19	F	Filler	82	5	have	6	65.0	NA
83	22	19	F	Filler	82	5	been	7	134.0	NA
83	22	19	F	Filler	82	5	eliminated	8	99.0	NA
83	22	19	F	Filler	82	5	by	9	134.0	NA
83	22	19	F	Filler	82	5	the	10	85.0	NA
83	22	19	F	Filler	82	5	surgery.	11	132.0	NA
83	22	19	F	Question	82	5	NA	NA	2469.0	1
84	22	19	F	Filler	128	7	While	1	663.0	NA
84	22	19	F	Filler	128	7	the	2	65.0	NA
84	22	19	F	Filler	128	7	man	3	86.0	NA
84	22	19	F	Filler	128	7	was	4	50.0	NA
84	22	19	F	Filler	128	7	walking	5	35.0	NA
84	22	19	F	Filler	128	7	the	6	115.0	NA
84	22	19	F	Filler	128	7	poodle	7	82.0	NA
84	22	19	F	Filler	128	7	barked	8	152.0	NA
84	22	19	F	Filler	128	7	loudly.	9	82.0	NA
84	22	19	F	Question	128	7	NA	NA	1267.0	1
85	22	19	F	Filler	85	5	The	1	412.0	NA
85	22	19	F	Filler	85	5	college	2	267.0	NA
85	22	19	F	Filler	85	5	students	3	66.0	NA
85	22	19	F	Filler	85	5	were	4	83.0	NA
85	22	19	F	Filler	85	5	upset	5	68.0	NA
85	22	19	F	Filler	85	5	that	6	84.0	NA
85	22	19	F	Filler	85	5	they	7	183.0	NA
85	22	19	F	Filler	85	5	had	8	84.0	NA
85	22	19	F	Filler	85	5	an	9	82.0	NA
85	22	19	F	Filler	85	5	exam	10	84.0	NA
85	22	19	F	Filler	85	5	the	11	34.0	NA
85	22	19	F	Filler	85	5	next	12	150.0	NA
85	22	19	F	Filler	85	5	day.	13	148.0	NA
85	22	19	F	Question	85	5	NA	NA	1436.0	1
86	22	19	F	Filler	81	5	The	1	362.0	NA
86	22	19	F	Filler	81	5	stubborn	2	100.0	NA
86	22	19	F	Filler	81	5	old	3	52.0	NA
86	22	19	F	Filler	81	5	man	4	99.0	NA
86	22	19	F	Filler	81	5	criticized	5	100.0	NA
86	22	19	F	Filler	81	5	everything	6	67.0	NA
86	22	19	F	Filler	81	5	that	7	117.0	NA
86	22	19	F	Filler	81	5	the	8	132.0	NA
86	22	19	F	Filler	81	5	young	9	84.0	NA
86	22	19	F	Filler	81	5	student	10	67.0	NA
86	22	19	F	Filler	81	5	did.	11	166.0	NA
86	22	19	F	Question	81	5	NA	NA	1368.0	1
87	22	19	F	Filler	86	5	The	1	494.0	NA
87	22	19	F	Filler	86	5	family's	2	102.0	NA
87	22	19	F	Filler	86	5	television	3	68.0	NA
87	22	19	F	Filler	86	5	stopped	4	114.0	NA
87	22	19	F	Filler	86	5	working	5	67.0	NA
87	22	19	F	Filler	86	5	two	6	68.0	NA
87	22	19	F	Filler	86	5	days	7	115.0	NA
87	22	19	F	Filler	86	5	after	8	67.0	NA
87	22	19	F	Filler	86	5	the	9	117.0	NA
87	22	19	F	Filler	86	5	warranty	10	68.0	NA
87	22	19	F	Filler	86	5	expired.	11	133.0	NA
87	22	19	F	Question	86	5	NA	NA	1567.0	1
88	22	19	F	swets	16	1	The	1	295.0	NA
88	22	19	F	swets	16	1	uncle	2	66.0	NA
88	22	19	F	swets	16	1	of	3	117.0	NA
88	22	19	F	swets	16	1	the	4	99.0	NA
88	22	19	F	swets	16	1	general	5	267.0	NA
88	22	19	F	swets	16	1	who	6	65.0	NA
88	22	19	F	swets	16	1	sacrificed	7	83.0	NA
88	22	19	F	swets	16	1	himself	8	69.0	NA
88	22	19	F	swets	16	1	for	9	97.0	NA
88	22	19	F	swets	16	1	the	10	118.0	NA
88	22	19	F	swets	16	1	cause	11	117.0	NA
88	22	19	F	swets	16	1	was	12	116.0	NA
88	22	19	F	swets	16	1	the	13	117.0	NA
88	22	19	F	swets	16	1	subject	14	84.0	NA
88	22	19	F	swets	16	1	of	15	83.0	NA
88	22	19	F	swets	16	1	the	16	115.0	NA
88	22	19	F	swets	16	1	biography.	17	137.0	NA
88	22	19	F	Question	16	1	NA	NA	2782.0	1
89	22	19	F	Filler	113	6	While	1	1215.0	NA
89	22	19	F	Filler	113	6	Noah	2	83.0	NA
89	22	19	F	Filler	113	6	was	3	64.0	NA
89	22	19	F	Filler	113	6	waking	4	102.0	NA
89	22	19	F	Filler	113	6	up	5	66.0	NA
89	22	19	F	Filler	113	6	the	6	99.0	NA
89	22	19	F	Filler	113	6	man	7	103.0	NA
89	22	19	F	Filler	113	6	the	8	132.0	NA
89	22	19	F	Filler	113	6	neighbor	9	100.0	NA
89	22	19	F	Filler	113	6	coughed	10	65.0	NA
89	22	19	F	Filler	113	6	loudly.	11	117.0	NA
89	22	19	F	Question	113	6	NA	NA	1299.0	1
90	22	19	F	Filler	76	5	After	1	411.0	NA
90	22	19	F	Filler	76	5	fifty	2	367.0	NA
90	22	19	F	Filler	76	5	years	3	100.0	NA
90	22	19	F	Filler	76	5	of	4	84.0	NA
90	22	19	F	Filler	76	5	marriage	5	116.0	NA
90	22	19	F	Filler	76	5	the	6	68.0	NA
90	22	19	F	Filler	76	5	old	7	98.0	NA
90	22	19	F	Filler	76	5	couple	8	118.0	NA
90	22	19	F	Filler	76	5	still	9	65.0	NA
90	22	19	F	Filler	76	5	felt	10	219.0	NA
90	22	19	F	Filler	76	5	the	11	133.0	NA
90	22	19	F	Filler	76	5	same	12	147.0	NA
90	22	19	F	Filler	76	5	about	13	152.0	NA
90	22	19	F	Filler	76	5	each	14	65.0	NA
90	22	19	F	Filler	76	5	other	15	102.0	NA
90	22	19	F	Filler	76	5	as	16	368.0	NA
90	22	19	F	Filler	76	5	they	17	84.0	NA
90	22	19	F	Filler	76	5	had	18	131.0	NA
90	22	19	F	Filler	76	5	on	19	116.0	NA
90	22	19	F	Filler	76	5	their	20	304.0	NA
90	22	19	F	Filler	76	5	wedding	21	166.0	NA
90	22	19	F	Filler	76	5	day.	22	266.0	NA
90	22	19	F	Question	76	5	NA	NA	1200.0	1
91	22	19	F	swets	34	1	The	1	729.0	NA
91	22	19	F	swets	34	1	waitress	2	81.0	NA
91	22	19	F	swets	34	1	of	3	101.0	NA
91	22	19	F	swets	34	1	the	4	85.0	NA
91	22	19	F	swets	34	1	woman	5	66.0	NA
91	22	19	F	swets	34	1	who	6	83.0	NA
91	22	19	F	swets	34	1	considered	7	85.0	NA
91	22	19	F	swets	34	1	herself	8	50.0	NA
91	22	19	F	swets	34	1	a	9	116.0	NA
91	22	19	F	swets	34	1	natural	10	351.0	NA
91	22	19	F	swets	34	1	beauty	11	117.0	NA
91	22	19	F	swets	34	1	spilled	12	334.0	NA
91	22	19	F	swets	34	1	the	13	151.0	NA
91	22	19	F	swets	34	1	drinks.	14	517.0	NA
91	22	19	F	Question	34	1	NA	NA	1499.0	1
92	22	19	F	Filler	121	6	The	1	377.0	NA
92	22	19	F	Filler	121	6	ecologist	2	302.0	NA
92	22	19	F	Filler	121	6	wondered	3	99.0	NA
92	22	19	F	Filler	121	6	which	4	85.0	NA
92	22	19	F	Filler	121	6	plants	5	82.0	NA
92	22	19	F	Filler	121	6	the	6	68.0	NA
92	22	19	F	Filler	121	6	scientist	7	98.0	NA
92	22	19	F	Filler	121	6	grew	8	67.0	NA
92	22	19	F	Filler	121	6	but	9	117.0	NA
92	22	19	F	Filler	121	6	didn't	10	115.0	NA
92	22	19	F	Filler	121	6	modify	11	102.0	NA
92	22	19	F	Filler	121	6	the	12	198.0	NA
92	22	19	F	Filler	121	6	seeds	13	217.0	NA
92	22	19	F	Filler	121	6	of	14	234.0	NA
92	22	19	F	Filler	121	6	in	15	317.0	NA
92	22	19	F	Filler	121	6	the	16	101.0	NA
92	22	19	F	Filler	121	6	lab.	17	201.0	NA
92	22	19	F	Question	121	6	NA	NA	1367.0	1
93	22	19	F	Filler	90	5	The	1	695.0	NA
93	22	19	F	Filler	90	5	artist	2	116.0	NA
93	22	19	F	Filler	90	5	was	3	100.0	NA
93	22	19	F	Filler	90	5	not	4	85.0	NA
93	22	19	F	Filler	90	5	satisfied	5	235.0	NA
93	22	19	F	Filler	90	5	with	6	118.0	NA
93	22	19	F	Filler	90	5	his	7	100.0	NA
93	22	19	F	Filler	90	5	painting	8	67.0	NA
93	22	19	F	Filler	90	5	because	9	99.0	NA
93	22	19	F	Filler	90	5	the	10	66.0	NA
93	22	19	F	Filler	90	5	shading	11	734.0	NA
93	22	19	F	Filler	90	5	was	12	117.0	NA
93	22	19	F	Filler	90	5	off.	13	99.0	NA
93	22	19	F	Question	90	5	NA	NA	1633.0	1
94	22	19	F	Filler	38	4	Despite	1	2064.0	NA
94	22	19	F	Filler	38	4	the	2	116.0	NA
94	22	19	F	Filler	38	4	lack	3	248.0	NA
94	22	19	F	Filler	38	4	of	4	119.0	NA
94	22	19	F	Filler	38	4	publicity	5	100.0	NA
94	22	19	F	Filler	38	4	many	6	66.0	NA
94	22	19	F	Filler	38	4	people	7	117.0	NA
94	22	19	F	Filler	38	4	attended	8	82.0	NA
94	22	19	F	Filler	38	4	the	9	318.0	NA
94	22	19	F	Filler	38	4	lecture.	10	134.0	NA
94	22	19	F	Question	38	4	NA	NA	1301.0	1
95	22	19	F	Filler	144	7	The	1	396.0	NA
95	22	19	F	Filler	144	7	apple	2	132.0	NA
95	22	19	F	Filler	144	7	and	3	99.0	NA
95	22	19	F	Filler	144	7	potato	4	101.0	NA
95	22	19	F	Filler	144	7	went	5	83.0	NA
95	22	19	F	Filler	144	7	rotten	6	101.0	NA
95	22	19	F	Filler	144	7	after	7	115.0	NA
95	22	19	F	Filler	144	7	a	8	102.0	NA
95	22	19	F	Filler	144	7	week.	9	99.0	NA
95	22	19	F	Question	144	7	NA	NA	1302.0	1
96	22	19	F	swets	36	3	The	1	696.0	NA
96	22	19	F	swets	36	3	son	2	83.0	NA
96	22	19	F	swets	36	3	of	3	116.0	NA
96	22	19	F	swets	36	3	the	4	84.0	NA
96	22	19	F	swets	36	3	saleswoman	5	99.0	NA
96	22	19	F	swets	36	3	who	6	101.0	NA
96	22	19	F	swets	36	3	talked	7	184.0	NA
96	22	19	F	swets	36	3	to	8	66.0	NA
96	22	19	F	swets	36	3	himself	9	117.0	NA
96	22	19	F	swets	36	3	all	10	118.0	NA
96	22	19	F	swets	36	3	the	11	118.0	NA
96	22	19	F	swets	36	3	time	12	565.0	NA
96	22	19	F	swets	36	3	walked	13	133.0	NA
96	22	19	F	swets	36	3	into	14	83.0	NA
96	22	19	F	swets	36	3	the	15	232.0	NA
96	22	19	F	swets	36	3	room.	16	119.0	NA
96	22	19	F	Question	36	3	NA	NA	1966.0	1
97	22	19	F	Filler	83	5	The	1	1961.0	NA
97	22	19	F	Filler	83	5	passengers	2	102.0	NA
97	22	19	F	Filler	83	5	screamed	3	98.0	NA
97	22	19	F	Filler	83	5	as	4	100.0	NA
97	22	19	F	Filler	83	5	the	5	85.0	NA
97	22	19	F	Filler	83	5	plane	6	265.0	NA
97	22	19	F	Filler	83	5	dipped	7	134.0	NA
97	22	19	F	Filler	83	5	and	8	67.0	NA
97	22	19	F	Filler	83	5	the	9	98.0	NA
97	22	19	F	Filler	83	5	pilots	10	102.0	NA
97	22	19	F	Filler	83	5	said	11	232.0	NA
97	22	19	F	Filler	83	5	their	12	169.0	NA
97	22	19	F	Filler	83	5	prayers	13	170.0	NA
97	22	19	F	Filler	83	5	quietly.	14	399.0	NA
97	22	19	F	Question	83	5	NA	NA	1299.0	1
98	22	19	F	Filler	69	4	The	1	461.0	NA
98	22	19	F	Filler	69	4	tiny	2	118.0	NA
98	22	19	F	Filler	69	4	child	3	83.0	NA
98	22	19	F	Filler	69	4	rolled	4	169.0	NA
98	22	19	F	Filler	69	4	the	5	101.0	NA
98	22	19	F	Filler	69	4	piece	6	82.0	NA
98	22	19	F	Filler	69	4	of	7	116.0	NA
98	22	19	F	Filler	69	4	the	8	82.0	NA
98	22	19	F	Filler	69	4	toy	9	86.0	NA
98	22	19	F	Filler	69	4	into	10	133.0	NA
98	22	19	F	Filler	69	4	the	11	83.0	NA
98	22	19	F	Filler	69	4	next	12	117.0	NA
98	22	19	F	Filler	69	4	room	13	115.0	NA
98	22	19	F	Filler	69	4	after	14	83.0	NA
98	22	19	F	Filler	69	4	it	15	152.0	NA
98	22	19	F	Filler	69	4	broke	16	100.0	NA
98	22	19	F	Filler	69	4	off.	17	67.0	NA
98	22	19	F	Question	69	4	NA	NA	1332.0	1
99	22	19	F	swets	30	3	The	1	379.0	NA
99	22	19	F	swets	30	3	bodyguard	2	66.0	NA
99	22	19	F	swets	30	3	of	3	131.0	NA
99	22	19	F	swets	30	3	the	4	101.0	NA
99	22	19	F	swets	30	3	baroness	5	101.0	NA
99	22	19	F	swets	30	3	who	6	132.0	NA
99	22	19	F	swets	30	3	prepared	7	334.0	NA
99	22	19	F	swets	30	3	himself	8	184.0	NA
99	22	19	F	swets	30	3	very	9	148.0	NA
99	22	19	F	swets	30	3	thoroughly	10	201.0	NA
99	22	19	F	swets	30	3	came	11	100.0	NA
99	22	19	F	swets	30	3	from	12	100.0	NA
99	22	19	F	swets	30	3	the	13	101.0	NA
99	22	19	F	swets	30	3	south.	14	167.0	NA
99	22	19	F	Question	30	3	NA	NA	2386.0	1
100	22	19	F	Filler	143	7	The	1	829.0	NA
100	22	19	F	Filler	143	7	lawyer	2	117.0	NA
100	22	19	F	Filler	143	7	and	3	84.0	NA
100	22	19	F	Filler	143	7	defendant	4	166.0	NA
100	22	19	F	Filler	143	7	whispered	5	135.0	NA
100	22	19	F	Filler	143	7	furiously	6	134.0	NA
100	22	19	F	Filler	143	7	during	7	150.0	NA
100	22	19	F	Filler	143	7	the	8	199.0	NA
100	22	19	F	Filler	143	7	recess.	9	217.0	NA
100	22	19	F	Question	143	7	NA	NA	1302.0	1
101	22	19	F	Filler	80	5	The	1	363.0	NA
101	22	19	F	Filler	80	5	stepfather	2	166.0	NA
101	22	19	F	Filler	80	5	of	3	116.0	NA
101	22	19	F	Filler	80	5	the	4	102.0	NA
101	22	19	F	Filler	80	5	nun	5	99.0	NA
101	22	19	F	Filler	80	5	with	6	87.0	NA
101	22	19	F	Filler	80	5	a	7	115.0	NA
101	22	19	F	Filler	80	5	long	8	149.0	NA
101	22	19	F	Filler	80	5	white	9	233.0	NA
101	22	19	F	Filler	80	5	beard	10	201.0	NA
101	22	19	F	Filler	80	5	became	11	565.0	NA
101	22	19	F	Filler	80	5	very	12	118.0	NA
101	22	19	F	Filler	80	5	ill.	13	100.0	NA
101	22	19	F	Question	80	5	NA	NA	2367.0	0
102	22	19	F	swets	35	2	The	1	344.0	NA
102	22	19	F	swets	35	2	landlady	2	100.0	NA
102	22	19	F	swets	35	2	of	3	68.0	NA
102	22	19	F	swets	35	2	the	4	98.0	NA
102	22	19	F	swets	35	2	businessman	5	100.0	NA
102	22	19	F	swets	35	2	who	6	66.0	NA
102	22	19	F	swets	35	2	had	7	136.0	NA
102	22	19	F	swets	35	2	locked	8	333.0	NA
102	22	19	F	swets	35	2	himself	9	83.0	NA
102	22	19	F	swets	35	2	in	10	99.0	NA
102	22	19	F	swets	35	2	the	11	116.0	NA
102	22	19	F	swets	35	2	office	12	115.0	NA
102	22	19	F	swets	35	2	received	13	153.0	NA
102	22	19	F	swets	35	2	a	14	115.0	NA
102	22	19	F	swets	35	2	phone	15	99.0	NA
102	22	19	F	swets	35	2	call.	16	100.0	NA
102	22	19	F	Question	35	2	NA	NA	2219.0	0
103	22	19	F	Filler	103	5	The	1	344.0	NA
103	22	19	F	Filler	103	5	desperate	2	101.0	NA
103	22	19	F	Filler	103	5	thief	3	118.0	NA
103	22	19	F	Filler	103	5	ran	4	99.0	NA
103	22	19	F	Filler	103	5	over	5	83.0	NA
103	22	19	F	Filler	103	5	a	6	86.0	NA
103	22	19	F	Filler	103	5	child	7	83.0	NA
103	22	19	F	Filler	103	5	in	8	82.0	NA
103	22	19	F	Filler	103	5	an	9	84.0	NA
103	22	19	F	Filler	103	5	attempt	10	101.0	NA
103	22	19	F	Filler	103	5	to	11	66.0	NA
103	22	19	F	Filler	103	5	dodge	12	100.0	NA
103	22	19	F	Filler	103	5	the	13	117.0	NA
103	22	19	F	Filler	103	5	cops.	14	83.0	NA
103	22	19	F	Question	103	5	NA	NA	2017.0	1
104	22	19	F	Filler	131	7	While	1	1479.0	NA
104	22	19	F	Filler	131	7	Jamie	2	116.0	NA
104	22	19	F	Filler	131	7	dried	3	67.0	NA
104	22	19	F	Filler	131	7	off	4	132.0	NA
104	22	19	F	Filler	131	7	the	5	69.0	NA
104	22	19	F	Filler	131	7	table	6	166.0	NA
104	22	19	F	Filler	131	7	his	7	83.0	NA
104	22	19	F	Filler	131	7	sunglasses	8	133.0	NA
104	22	19	F	Filler	131	7	disappeared.	9	35.0	NA
104	22	19	F	Question	131	7	NA	NA	2251.0	1
105	22	19	F	Filler	60	4	The	1	511.0	NA
105	22	19	F	Filler	60	4	newlyweds	2	134.0	NA
105	22	19	F	Filler	60	4	were	3	66.0	NA
105	22	19	F	Filler	60	4	nervous	4	133.0	NA
105	22	19	F	Filler	60	4	about	5	67.0	NA
105	22	19	F	Filler	60	4	their	6	68.0	NA
105	22	19	F	Filler	60	4	new	7	98.0	NA
105	22	19	F	Filler	60	4	life	8	101.0	NA
105	22	19	F	Filler	60	4	together.	9	133.0	NA
105	22	19	F	Question	60	4	NA	NA	1402.0	1
106	22	19	F	Filler	72	4	The	1	145.0	NA
106	22	19	F	Filler	72	4	secretaries	2	133.0	NA
106	22	19	F	Filler	72	4	couldn't	3	69.0	NA
106	22	19	F	Filler	72	4	break	4	99.0	NA
106	22	19	F	Filler	72	4	away	5	66.0	NA
106	22	19	F	Filler	72	4	from	6	50.0	NA
106	22	19	F	Filler	72	4	their	7	51.0	NA
106	22	19	F	Filler	72	4	habit	8	83.0	NA
106	22	19	F	Filler	72	4	of	9	116.0	NA
106	22	19	F	Filler	72	4	coffee	10	65.0	NA
106	22	19	F	Filler	72	4	and	11	86.0	NA
106	22	19	F	Filler	72	4	cigarettes	12	100.0	NA
106	22	19	F	Filler	72	4	during	13	132.0	NA
106	22	19	F	Filler	72	4	their	14	48.0	NA
106	22	19	F	Filler	72	4	breaks.	15	71.0	NA
106	22	19	F	Question	72	4	NA	NA	2633.0	1
107	22	19	F	swets	8	2	The	1	946.0	NA
107	22	19	F	swets	8	2	brother	2	152.0	NA
107	22	19	F	swets	8	2	of	3	67.0	NA
107	22	19	F	swets	8	2	the	4	81.0	NA
107	22	19	F	swets	8	2	seamstress	5	69.0	NA
107	22	19	F	swets	8	2	who	6	99.0	NA
107	22	19	F	swets	8	2	entertained	7	100.0	NA
107	22	19	F	swets	8	2	herself	8	82.0	NA
107	22	19	F	swets	8	2	most	9	84.0	NA
107	22	19	F	swets	8	2	evenings	10	102.0	NA
107	22	19	F	swets	8	2	was	11	115.0	NA
107	22	19	F	swets	8	2	reading	12	101.0	NA
107	22	19	F	swets	8	2	a	13	99.0	NA
107	22	19	F	swets	8	2	book.	14	316.0	NA
107	22	19	F	Question	8	2	NA	NA	1500.0	1
108	22	19	F	Filler	141	7	The	1	595.0	NA
108	22	19	F	Filler	141	7	nurse	2	101.0	NA
108	22	19	F	Filler	141	7	and	3	100.0	NA
108	22	19	F	Filler	141	7	custodian	4	100.0	NA
108	22	19	F	Filler	141	7	chatted	5	118.0	NA
108	22	19	F	Filler	141	7	during	6	99.0	NA
108	22	19	F	Filler	141	7	their	7	67.0	NA
108	22	19	F	Filler	141	7	break.	8	134.0	NA
108	22	19	F	Question	141	7	NA	NA	1401.0	1
109	22	19	F	swets	6	3	The	1	329.0	NA
109	22	19	F	swets	6	3	hostess	2	84.0	NA
109	22	19	F	swets	6	3	of	3	66.0	NA
109	22	19	F	swets	6	3	the	4	250.0	NA
109	22	19	F	swets	6	3	mayor	5	99.0	NA
109	22	19	F	swets	6	3	who	6	84.0	NA
109	22	19	F	swets	6	3	complimented	7	100.0	NA
109	22	19	F	swets	6	3	herself	8	67.0	NA
109	22	19	F	swets	6	3	constantly	9	102.0	NA
109	22	19	F	swets	6	3	was	10	97.0	NA
109	22	19	F	swets	6	3	bothered	11	118.0	NA
109	22	19	F	swets	6	3	by	12	100.0	NA
109	22	19	F	swets	6	3	the	13	117.0	NA
109	22	19	F	swets	6	3	reporter.	14	133.0	NA
109	22	19	F	Question	6	3	NA	NA	2786.0	1
110	22	19	F	Filler	120	6	Sarah	1	1264.0	NA
110	22	19	F	Filler	120	6	won't	2	250.0	NA
110	22	19	F	Filler	120	6	reveal	3	402.0	NA
110	22	19	F	Filler	120	6	which	4	49.0	NA
110	22	19	F	Filler	120	6	race	5	17.0	NA
110	22	19	F	Filler	120	6	she	6	367.0	NA
110	22	19	F	Filler	120	6	won	7	18.0	NA
110	22	19	F	Filler	120	6	without	8	181.0	NA
110	22	19	F	Filler	120	6	entering	9	84.0	NA
110	22	19	F	Filler	120	6	the	10	82.0	NA
110	22	19	F	Filler	120	6	competition	11	102.0	NA
110	22	19	F	Filler	120	6	for	12	63.0	NA
110	22	19	F	Filler	120	6	officially.	13	134.0	NA
110	22	19	F	Question	120	6	NA	NA	2736.0	1
111	22	19	F	Filler	71	4	The	1	495.0	NA
111	22	19	F	Filler	71	4	elderly	2	133.0	NA
111	22	19	F	Filler	71	4	woman	3	67.0	NA
111	22	19	F	Filler	71	4	locked	4	82.0	NA
111	22	19	F	Filler	71	4	and	5	251.0	NA
111	22	19	F	Filler	71	4	bolted	6	67.0	NA
111	22	19	F	Filler	71	4	her	7	83.0	NA
111	22	19	F	Filler	71	4	door	8	82.0	NA
111	22	19	F	Filler	71	4	every	9	67.0	NA
111	22	19	F	Filler	71	4	night	10	67.0	NA
111	22	19	F	Filler	71	4	after	11	148.0	NA
111	22	19	F	Filler	71	4	the	12	171.0	NA
111	22	19	F	Filler	71	4	robbers	13	334.0	NA
111	22	19	F	Filler	71	4	took	14	265.0	NA
111	22	19	F	Filler	71	4	her	15	248.0	NA
111	22	19	F	Filler	71	4	best	16	317.0	NA
111	22	19	F	Filler	71	4	pearls.	17	168.0	NA
111	22	19	F	Question	71	4	NA	NA	1400.0	1
112	22	19	F	Filler	59	4	The	1	1714.0	NA
112	22	19	F	Filler	59	4	conductor	2	168.0	NA
112	22	19	F	Filler	59	4	of	3	50.0	NA
112	22	19	F	Filler	59	4	the	4	49.0	NA
112	22	19	F	Filler	59	4	orchestra	5	67.0	NA
112	22	19	F	Filler	59	4	with	6	99.0	NA
112	22	19	F	Filler	59	4	the	7	67.0	NA
112	22	19	F	Filler	59	4	bald	8	67.0	NA
112	22	19	F	Filler	59	4	head	9	68.0	NA
112	22	19	F	Filler	59	4	plays	10	251.0	NA
112	22	19	F	Filler	59	4	excellently.	11	100.0	NA
112	22	19	F	Question	59	4	NA	NA	1334.0	1
113	22	19	F	swets	4	1	The	1	495.0	NA
113	22	19	F	swets	4	1	mother	2	67.0	NA
113	22	19	F	swets	4	1	of	3	101.0	NA
113	22	19	F	swets	4	1	the	4	100.0	NA
113	22	19	F	swets	4	1	bride	5	116.0	NA
113	22	19	F	swets	4	1	who	6	49.0	NA
113	22	19	F	swets	4	1	embarrassed	7	136.0	NA
113	22	19	F	swets	4	1	herself	8	264.0	NA
113	22	19	F	swets	4	1	at	9	252.0	NA
113	22	19	F	swets	4	1	the	10	132.0	NA
113	22	19	F	swets	4	1	reception	11	135.0	NA
113	22	19	F	swets	4	1	was	12	183.0	NA
113	22	19	F	swets	4	1	complaining	13	134.0	NA
113	22	19	F	swets	4	1	to	14	133.0	NA
113	22	19	F	swets	4	1	the	15	100.0	NA
113	22	19	F	swets	4	1	priest.	16	151.0	NA
113	22	19	F	Question	4	1	NA	NA	2252.0	1
114	22	19	F	Filler	41	4	While	1	814.0	NA
114	22	19	F	Filler	41	4	the	2	101.0	NA
114	22	19	F	Filler	41	4	babysitter	3	101.0	NA
114	22	19	F	Filler	41	4	watched	4	33.0	NA
114	22	19	F	Filler	41	4	soap	5	48.0	NA
114	22	19	F	Filler	41	4	operas	6	84.0	NA
114	22	19	F	Filler	41	4	the	7	17.0	NA
114	22	19	F	Filler	41	4	child	8	150.0	NA
114	22	19	F	Filler	41	4	poured	9	133.0	NA
114	22	19	F	Filler	41	4	honey	10	83.0	NA
114	22	19	F	Filler	41	4	all	11	118.0	NA
114	22	19	F	Filler	41	4	over	12	133.0	NA
114	22	19	F	Filler	41	4	the	13	115.0	NA
114	22	19	F	Filler	41	4	floor.	14	251.0	NA
114	22	19	F	Question	41	4	NA	NA	1617.0	1
115	22	19	F	Filler	57	4	The	1	1228.0	NA
115	22	19	F	Filler	57	4	architect	2	102.0	NA
115	22	19	F	Filler	57	4	was	3	83.0	NA
115	22	19	F	Filler	57	4	embarrassed	4	101.0	NA
115	22	19	F	Filler	57	4	by	5	100.0	NA
115	22	19	F	Filler	57	4	the	6	115.0	NA
115	22	19	F	Filler	57	4	memo	7	151.0	NA
115	22	19	F	Filler	57	4	of	8	66.0	NA
115	22	19	F	Filler	57	4	the	9	84.0	NA
115	22	19	F	Filler	57	4	engineer	10	101.0	NA
115	22	19	F	Filler	57	4	because	11	67.0	NA
115	22	19	F	Filler	57	4	it	12	148.0	NA
115	22	19	F	Filler	57	4	said	13	115.0	NA
115	22	19	F	Filler	57	4	that	14	121.0	NA
115	22	19	F	Filler	57	4	his	15	99.0	NA
115	22	19	F	Filler	57	4	building	16	66.0	NA
115	22	19	F	Filler	57	4	would	17	101.0	NA
115	22	19	F	Filler	57	4	collapse.	18	99.0	NA
115	22	19	F	Question	57	4	NA	NA	1435.0	1
116	22	19	F	swets	10	1	The	1	347.0	NA
116	22	19	F	swets	10	1	aunt	2	100.0	NA
116	22	19	F	swets	10	1	of	3	116.0	NA
116	22	19	F	swets	10	1	the	4	83.0	NA
116	22	19	F	swets	10	1	nun	5	219.0	NA
116	22	19	F	swets	10	1	who	6	283.0	NA
116	22	19	F	swets	10	1	lost	7	117.0	NA
116	22	19	F	swets	10	1	herself	8	300.0	NA
116	22	19	F	swets	10	1	in	9	117.0	NA
116	22	19	F	swets	10	1	thought	10	67.0	NA
116	22	19	F	swets	10	1	was	11	116.0	NA
116	22	19	F	swets	10	1	disturbed	12	101.0	NA
116	22	19	F	swets	10	1	by	13	83.0	NA
116	22	19	F	swets	10	1	the	14	149.0	NA
116	22	19	F	swets	10	1	noise.	15	117.0	NA
116	22	19	F	Question	10	1	NA	NA	1751.0	1
117	22	19	F	Filler	108	5	The	1	513.0	NA
117	22	19	F	Filler	108	5	museum	2	83.0	NA
117	22	19	F	Filler	108	5	wing	3	116.0	NA
117	22	19	F	Filler	108	5	which	4	300.0	NA
117	22	19	F	Filler	108	5	housed	5	117.0	NA
117	22	19	F	Filler	108	5	all	6	367.0	NA
117	22	19	F	Filler	108	5	the	7	81.0	NA
117	22	19	F	Filler	108	5	Picasso	8	69.0	NA
117	22	19	F	Filler	108	5	paintings	9	133.0	NA
117	22	19	F	Filler	108	5	was	10	101.0	NA
117	22	19	F	Filler	108	5	very	11	282.0	NA
117	22	19	F	Filler	108	5	crowded.	12	433.0	NA
117	22	19	F	Question	108	5	NA	NA	1369.0	1
118	22	19	F	Filler	101	5	The	1	1345.0	NA
118	22	19	F	Filler	101	5	friendly	2	134.0	NA
118	22	19	F	Filler	101	5	woman	3	183.0	NA
118	22	19	F	Filler	101	5	was	4	67.0	NA
118	22	19	F	Filler	101	5	insulted	5	68.0	NA
118	22	19	F	Filler	101	5	by	6	67.0	NA
118	22	19	F	Filler	101	5	the	7	334.0	NA
118	22	19	F	Filler	101	5	rude	8	132.0	NA
118	22	19	F	Filler	101	5	stranger	9	136.0	NA
118	22	19	F	Filler	101	5	because	10	1382.0	NA
118	22	19	F	Filler	101	5	he	11	216.0	NA
118	22	19	F	Filler	101	5	didn't	12	568.0	NA
118	22	19	F	Filler	101	5	smile	13	82.0	NA
118	22	19	F	Filler	101	5	at	14	101.0	NA
118	22	19	F	Filler	101	5	her.	15	151.0	NA
118	22	19	F	Question	101	5	NA	NA	1802.0	1
119	22	19	F	swets	21	3	The	1	463.0	NA
119	22	19	F	swets	21	3	wife	2	34.0	NA
119	22	19	F	swets	21	3	of	3	84.0	NA
119	22	19	F	swets	21	3	the	4	64.0	NA
119	22	19	F	swets	21	3	janitor	5	119.0	NA
119	22	19	F	swets	21	3	who	6	67.0	NA
119	22	19	F	swets	21	3	educated	7	67.0	NA
119	22	19	F	swets	21	3	herself	8	32.0	NA
119	22	19	F	swets	21	3	at	9	165.0	NA
119	22	19	F	swets	21	3	night	10	134.0	NA
119	22	19	F	swets	21	3	loved	11	219.0	NA
119	22	19	F	swets	21	3	going	12	317.0	NA
119	22	19	F	swets	21	3	to	13	150.0	NA
119	22	19	F	swets	21	3	the	14	83.0	NA
119	22	19	F	swets	21	3	theatre.	15	84.0	NA
119	22	19	F	Question	21	3	NA	NA	2302.0	1
120	22	19	F	Filler	66	4	The	1	880.0	NA
120	22	19	F	Filler	66	4	rare	2	217.0	NA
120	22	19	F	Filler	66	4	and	3	301.0	NA
120	22	19	F	Filler	66	4	exotic	4	150.0	NA
120	22	19	F	Filler	66	4	monkey	5	167.0	NA
120	22	19	F	Filler	66	4	was	6	115.0	NA
120	22	19	F	Filler	66	4	the	7	135.0	NA
120	22	19	F	Filler	66	4	center	8	81.0	NA
120	22	19	F	Filler	66	4	of	9	135.0	NA
120	22	19	F	Filler	66	4	attention	10	84.0	NA
120	22	19	F	Filler	66	4	at	11	65.0	NA
120	22	19	F	Filler	66	4	the	12	201.0	NA
120	22	19	F	Filler	66	4	zoo.	13	68.0	NA
120	22	19	F	Question	66	4	NA	NA	2868.0	1
121	22	19	F	Filler	62	4	After	1	878.0	NA
121	22	19	F	Filler	62	4	much	2	316.0	NA
121	22	19	F	Filler	62	4	deliberation	3	69.0	NA
121	22	19	F	Filler	62	4	the	4	83.0	NA
121	22	19	F	Filler	62	4	jury	5	116.0	NA
121	22	19	F	Filler	62	4	found	6	67.0	NA
121	22	19	F	Filler	62	4	the	7	300.0	NA
121	22	19	F	Filler	62	4	defendant	8	218.0	NA
121	22	19	F	Filler	62	4	not	9	116.0	NA
121	22	19	F	Filler	62	4	guilty.	10	167.0	NA
121	22	19	F	Question	62	4	NA	NA	2652.0	1
122	22	19	F	swets	23	2	The	1	644.0	NA
122	22	19	F	swets	23	2	father	2	384.0	NA
122	22	19	F	swets	23	2	of	3	149.0	NA
122	22	19	F	swets	23	2	the	4	117.0	NA
122	22	19	F	swets	23	2	ballerina	5	101.0	NA
122	22	19	F	swets	23	2	who	6	48.0	NA
122	22	19	F	swets	23	2	found	7	101.0	NA
122	22	19	F	swets	23	2	herself	8	99.0	NA
122	22	19	F	swets	23	2	in	9	100.0	NA
122	22	19	F	swets	23	2	a	10	149.0	NA
122	22	19	F	swets	23	2	lot	11	235.0	NA
122	22	19	F	swets	23	2	of	12	101.0	NA
122	22	19	F	swets	23	2	trouble	13	133.0	NA
122	22	19	F	swets	23	2	phoned	14	134.0	NA
122	22	19	F	swets	23	2	the	15	149.0	NA
122	22	19	F	swets	23	2	police.	16	86.0	NA
122	22	19	F	Question	23	2	NA	NA	1650.0	1
123	22	19	F	Filler	142	7	The	1	527.0	NA
123	22	19	F	Filler	142	7	cats	2	68.0	NA
123	22	19	F	Filler	142	7	and	3	99.0	NA
123	22	19	F	Filler	142	7	dogs	4	100.0	NA
123	22	19	F	Filler	142	7	glared	5	35.0	NA
123	22	19	F	Filler	142	7	at	6	98.0	NA
123	22	19	F	Filler	142	7	each	7	33.0	NA
123	22	19	F	Filler	142	7	other	8	218.0	NA
123	22	19	F	Filler	142	7	warily.	9	167.0	NA
123	22	19	F	Question	142	7	NA	NA	1320.0	1
124	22	19	F	Filler	91	5	The	1	746.0	NA
124	22	19	F	Filler	91	5	workman	2	235.0	NA
124	22	19	F	Filler	91	5	dropped	3	34.0	NA
124	22	19	F	Filler	91	5	the	4	98.0	NA
124	22	19	F	Filler	91	5	assistant	5	99.0	NA
124	22	19	F	Filler	91	5	who	6	20.0	NA
124	22	19	F	Filler	91	5	complained	7	132.0	NA
124	22	19	F	Filler	91	5	bitterly	8	101.0	NA
124	22	19	F	Filler	91	5	onto	9	65.0	NA
124	22	19	F	Filler	91	5	a	10	136.0	NA
124	22	19	F	Filler	91	5	lower	11	297.0	NA
124	22	19	F	Filler	91	5	floor.	12	151.0	NA
124	22	19	F	Question	91	5	NA	NA	2069.0	1
125	22	19	F	swets	2	2	The	1	413.0	NA
125	22	19	F	swets	2	2	sister	2	84.0	NA
125	22	19	F	swets	2	2	of	3	133.0	NA
125	22	19	F	swets	2	2	the	4	17.0	NA
125	22	19	F	swets	2	2	fireman	5	81.0	NA
125	22	19	F	swets	2	2	who	6	69.0	NA
125	22	19	F	swets	2	2	criticized	7	99.0	NA
125	22	19	F	swets	2	2	himself	8	49.0	NA
125	22	19	F	swets	2	2	far	9	167.0	NA
125	22	19	F	swets	2	2	too	10	101.0	NA
125	22	19	F	swets	2	2	often	11	115.0	NA
125	22	19	F	swets	2	2	was	12	118.0	NA
125	22	19	F	swets	2	2	painting	13	101.0	NA
125	22	19	F	swets	2	2	the	14	115.0	NA
125	22	19	F	swets	2	2	bedroom.	15	101.0	NA
125	22	19	F	Question	2	2	NA	NA	1550.0	1
126	22	19	F	Filler	63	4	The	1	830.0	NA
126	22	19	F	Filler	63	4	bride	2	100.0	NA
126	22	19	F	Filler	63	4	was	3	82.0	NA
126	22	19	F	Filler	63	4	devastated	4	35.0	NA
126	22	19	F	Filler	63	4	to	5	182.0	NA
126	22	19	F	Filler	63	4	lose	6	84.0	NA
126	22	19	F	Filler	63	4	her	7	134.0	NA
126	22	19	F	Filler	63	4	gold	8	99.0	NA
126	22	19	F	Filler	63	4	ring	9	133.0	NA
126	22	19	F	Filler	63	4	with	10	48.0	NA
126	22	19	F	Filler	63	4	a	11	50.0	NA
126	22	19	F	Filler	63	4	gleaming	12	168.0	NA
126	22	19	F	Filler	63	4	diamond	13	117.0	NA
126	22	19	F	Filler	63	4	in	14	117.0	NA
126	22	19	F	Filler	63	4	the	15	166.0	NA
126	22	19	F	Filler	63	4	middle.	16	68.0	NA
126	22	19	F	Question	63	4	NA	NA	1669.0	1
127	22	19	F	Filler	73	5	My	1	980.0	NA
127	22	19	F	Filler	73	5	cousins	2	100.0	NA
127	22	19	F	Filler	73	5	admired	3	215.0	NA
127	22	19	F	Filler	73	5	the	4	103.0	NA
127	22	19	F	Filler	73	5	singer	5	133.0	NA
127	22	19	F	Filler	73	5	although	6	68.0	NA
127	22	19	F	Filler	73	5	she	7	84.0	NA
127	22	19	F	Filler	73	5	never	8	99.0	NA
127	22	19	F	Filler	73	5	became	9	34.0	NA
127	22	19	F	Filler	73	5	popular.	10	67.0	NA
127	22	19	F	Question	73	5	NA	NA	8569.0	1
128	22	19	F	Filler	39	4	The	1	680.0	NA
128	22	19	F	Filler	39	4	overweight	2	133.0	NA
128	22	19	F	Filler	39	4	aunt	3	83.0	NA
128	22	19	F	Filler	39	4	decided	4	83.0	NA
128	22	19	F	Filler	39	4	to	5	465.0	NA
128	22	19	F	Filler	39	4	make	6	235.0	NA
128	22	19	F	Filler	39	4	cookies	7	168.0	NA
128	22	19	F	Filler	39	4	and	8	930.0	NA
128	22	19	F	Filler	39	4	cupcakes	9	304.0	NA
128	22	19	F	Filler	39	4	for	10	132.0	NA
128	22	19	F	Filler	39	4	the	11	166.0	NA
128	22	19	F	Filler	39	4	dinner	12	668.0	NA
128	22	19	F	Filler	39	4	party.	13	268.0	NA
128	22	19	F	Question	39	4	NA	NA	1899.0	1
129	22	19	F	Filler	94	5	After	1	1463.0	NA
129	22	19	F	Filler	94	5	months	2	115.0	NA
129	22	19	F	Filler	94	5	of	3	84.0	NA
129	22	19	F	Filler	94	5	preparation	4	100.0	NA
129	22	19	F	Filler	94	5	the	5	84.0	NA
129	22	19	F	Filler	94	5	ballerina	6	132.0	NA
129	22	19	F	Filler	94	5	was	7	83.0	NA
129	22	19	F	Filler	94	5	getting	8	35.0	NA
129	22	19	F	Filler	94	5	ready	9	115.0	NA
129	22	19	F	Filler	94	5	for	10	133.0	NA
129	22	19	F	Filler	94	5	opening	11	134.0	NA
129	22	19	F	Filler	94	5	night.	12	68.0	NA
129	22	19	F	Question	94	5	NA	NA	7556.0	1
130	22	19	F	Filler	64	4	Because	1	1062.0	NA
130	22	19	F	Filler	64	4	a	2	101.0	NA
130	22	19	F	Filler	64	4	fire	3	100.0	NA
130	22	19	F	Filler	64	4	alarm	4	82.0	NA
130	22	19	F	Filler	64	4	interrupted	5	102.0	NA
130	22	19	F	Filler	64	4	the	6	51.0	NA
130	22	19	F	Filler	64	4	exam	7	83.0	NA
130	22	19	F	Filler	64	4	the	8	115.0	NA
130	22	19	F	Filler	64	4	scores	9	84.0	NA
130	22	19	F	Filler	64	4	were	10	100.0	NA
130	22	19	F	Filler	64	4	disqualified.	11	68.0	NA
130	22	19	F	Question	64	4	NA	NA	1450.0	1
131	22	19	F	Filler	48	4	The	1	330.0	NA
131	22	19	F	Filler	48	4	police	2	99.0	NA
131	22	19	F	Filler	48	4	arrested	3	66.0	NA
131	22	19	F	Filler	48	4	the	4	70.0	NA
131	22	19	F	Filler	48	4	sister	5	98.0	NA
131	22	19	F	Filler	48	4	of	6	67.0	NA
131	22	19	F	Filler	48	4	the	7	85.0	NA
131	22	19	F	Filler	48	4	handyman	8	68.0	NA
131	22	19	F	Filler	48	4	after	9	66.0	NA
131	22	19	F	Filler	48	4	she	10	182.0	NA
131	22	19	F	Filler	48	4	recently	11	268.0	NA
131	22	19	F	Filler	48	4	gave	12	132.0	NA
131	22	19	F	Filler	48	4	birth	13	67.0	NA
131	22	19	F	Filler	48	4	to	14	99.0	NA
131	22	19	F	Filler	48	4	twins.	15	85.0	NA
131	22	19	F	Question	48	4	NA	NA	1200.0	1
132	22	19	F	swets	31	1	The	1	411.0	NA
132	22	19	F	swets	31	1	uncle	2	117.0	NA
132	22	19	F	swets	31	1	of	3	52.0	NA
132	22	19	F	swets	31	1	the	4	232.0	NA
132	22	19	F	swets	31	1	milkman	5	101.0	NA
132	22	19	F	swets	31	1	who	6	65.0	NA
132	22	19	F	swets	31	1	had	7	100.0	NA
132	22	19	F	swets	31	1	to	8	119.0	NA
132	22	19	F	swets	31	1	support	9	67.0	NA
132	22	19	F	swets	31	1	himself	10	149.0	NA
132	22	19	F	swets	31	1	with	11	250.0	NA
132	22	19	F	swets	31	1	a	12	168.0	NA
132	22	19	F	swets	31	1	low	13	251.0	NA
132	22	19	F	swets	31	1	income	14	131.0	NA
132	22	19	F	swets	31	1	liked	15	134.0	NA
132	22	19	F	swets	31	1	to	16	183.0	NA
132	22	19	F	swets	31	1	fish.	17	150.0	NA
132	22	19	F	Question	31	1	NA	NA	1103.0	1
133	22	19	F	Filler	88	5	The	1	647.0	NA
133	22	19	F	Filler	88	5	woman's	2	101.0	NA
133	22	19	F	Filler	88	5	posture	3	100.0	NA
133	22	19	F	Filler	88	5	began	4	98.0	NA
133	22	19	F	Filler	88	5	to	5	51.0	NA
133	22	19	F	Filler	88	5	go	6	117.0	NA
133	22	19	F	Filler	88	5	bad	7	116.0	NA
133	22	19	F	Filler	88	5	because	8	68.0	NA
133	22	19	F	Filler	88	5	of	9	116.0	NA
133	22	19	F	Filler	88	5	her	10	66.0	NA
133	22	19	F	Filler	88	5	constant	11	100.0	NA
133	22	19	F	Filler	88	5	slumping.	12	104.0	NA
133	22	19	F	Question	88	5	NA	NA	2001.0	1
134	22	19	F	Filler	53	4	The	1	545.0	NA
134	22	19	F	Filler	53	4	clay	2	50.0	NA
134	22	19	F	Filler	53	4	pot	3	83.0	NA
134	22	19	F	Filler	53	4	was	4	117.0	NA
134	22	19	F	Filler	53	4	full	5	100.0	NA
134	22	19	F	Filler	53	4	of	6	69.0	NA
134	22	19	F	Filler	53	4	gold	7	84.0	NA
134	22	19	F	Filler	53	4	coins	8	114.0	NA
134	22	19	F	Filler	53	4	and	9	66.0	NA
134	22	19	F	Filler	53	4	the	10	136.0	NA
134	22	19	F	Filler	53	4	thief	11	114.0	NA
134	22	19	F	Filler	53	4	knew	12	101.0	NA
134	22	19	F	Filler	53	4	he	13	134.0	NA
134	22	19	F	Filler	53	4	had	14	115.0	NA
134	22	19	F	Filler	53	4	finally	15	367.0	NA
134	22	19	F	Filler	53	4	hit	16	51.0	NA
134	22	19	F	Filler	53	4	the	17	85.0	NA
134	22	19	F	Filler	53	4	jackpot.	18	165.0	NA
134	22	19	F	Question	53	4	NA	NA	2353.0	1
135	22	19	F	Filler	117	6	While	1	663.0	NA
135	22	19	F	Filler	117	6	Mike	2	101.0	NA
135	22	19	F	Filler	117	6	coughed	3	98.0	NA
135	22	19	F	Filler	117	6	Janet	4	51.0	NA
135	22	19	F	Filler	117	6	went	5	81.0	NA
135	22	19	F	Filler	117	6	out	6	101.0	NA
135	22	19	F	Filler	117	6	to	7	51.0	NA
135	22	19	F	Filler	117	6	get	8	115.0	NA
135	22	19	F	Filler	117	6	some	9	99.0	NA
135	22	19	F	Filler	117	6	cough	10	285.0	NA
135	22	19	F	Filler	117	6	medicine.	11	133.0	NA
135	22	19	F	Question	117	6	NA	NA	1719.0	1
136	22	19	F	swets	14	2	The	1	79.0	NA
136	22	19	F	swets	14	2	father	2	732.0	NA
136	22	19	F	swets	14	2	of	3	102.0	NA
136	22	19	F	swets	14	2	the	4	217.0	NA
136	22	19	F	swets	14	2	nurse	5	101.0	NA
136	22	19	F	swets	14	2	who	6	166.0	NA
136	22	19	F	swets	14	2	injured	7	102.0	NA
136	22	19	F	swets	14	2	herself	8	115.0	NA
136	22	19	F	swets	14	2	last	9	69.0	NA
136	22	19	F	swets	14	2	summer	10	99.0	NA
136	22	19	F	swets	14	2	had	11	68.0	NA
136	22	19	F	swets	14	2	lived	12	232.0	NA
136	22	19	F	swets	14	2	in	13	84.0	NA
136	22	19	F	swets	14	2	Wales.	14	133.0	NA
136	22	19	F	Question	14	2	NA	NA	1519.0	1
137	22	19	F	Filler	87	5	The	1	565.0	NA
137	22	19	F	Filler	87	5	car	2	83.0	NA
137	22	19	F	Filler	87	5	chased	3	66.0	NA
137	22	19	F	Filler	87	5	the	4	66.0	NA
137	22	19	F	Filler	87	5	robber	5	85.0	NA
137	22	19	F	Filler	87	5	of	6	132.0	NA
137	22	19	F	Filler	87	5	the	7	67.0	NA
137	22	19	F	Filler	87	5	bank	8	83.0	NA
137	22	19	F	Filler	87	5	into	9	84.0	NA
137	22	19	F	Filler	87	5	a	10	148.0	NA
137	22	19	F	Filler	87	5	narrow	11	84.0	NA
137	22	19	F	Filler	87	5	alley.	12	184.0	NA
137	22	19	F	Question	87	5	NA	NA	1483.0	1
138	22	19	F	Filler	42	4	After	1	397.0	NA
138	22	19	F	Filler	42	4	dinner	2	148.0	NA
138	22	19	F	Filler	42	4	the	3	116.0	NA
138	22	19	F	Filler	42	4	children	4	101.0	NA
138	22	19	F	Filler	42	4	gathered	5	167.0	NA
138	22	19	F	Filler	42	4	in	6	65.0	NA
138	22	19	F	Filler	42	4	a	7	101.0	NA
138	22	19	F	Filler	42	4	circle	8	81.0	NA
138	22	19	F	Filler	42	4	to	9	168.0	NA
138	22	19	F	Filler	42	4	listen	10	117.0	NA
138	22	19	F	Filler	42	4	to	11	133.0	NA
138	22	19	F	Filler	42	4	their	12	150.0	NA
138	22	19	F	Filler	42	4	grandmother's	13	134.0	NA
138	22	19	F	Filler	42	4	stories	14	350.0	NA
138	22	19	F	Filler	42	4	about	15	133.0	NA
138	22	19	F	Filler	42	4	the	16	99.0	NA
138	22	19	F	Filler	42	4	good	17	102.0	NA
138	22	19	F	Filler	42	4	old	18	369.0	NA
138	22	19	F	Filler	42	4	days.	19	234.0	NA
138	22	19	F	Question	42	4	NA	NA	1499.0	1
139	22	19	F	swets	24	3	The	1	480.0	NA
139	22	19	F	swets	24	3	daughter	2	134.0	NA
139	22	19	F	swets	24	3	of	3	81.0	NA
139	22	19	F	swets	24	3	the	4	84.0	NA
139	22	19	F	swets	24	3	chaplain	5	101.0	NA
139	22	19	F	swets	24	3	who	6	51.0	NA
139	22	19	F	swets	24	3	drew	7	234.0	NA
139	22	19	F	swets	24	3	attention	8	282.0	NA
139	22	19	F	swets	24	3	to	9	116.0	NA
139	22	19	F	swets	24	3	herself	10	118.0	NA
139	22	19	F	swets	24	3	all	11	149.0	NA
139	22	19	F	swets	24	3	the	12	133.0	NA
139	22	19	F	swets	24	3	time	13	69.0	NA
139	22	19	F	swets	24	3	hated	14	133.0	NA
139	22	19	F	swets	24	3	small	15	115.0	NA
139	22	19	F	swets	24	3	children.	16	135.0	NA
139	22	19	F	Question	24	3	NA	NA	1734.0	1
140	22	19	F	Filler	112	6	As	1	2445.0	NA
140	22	19	F	Filler	112	6	the	2	267.0	NA
140	22	19	F	Filler	112	6	dog	3	117.0	NA
140	22	19	F	Filler	112	6	was	4	65.0	NA
140	22	19	F	Filler	112	6	calming	5	86.0	NA
140	22	19	F	Filler	112	6	down	6	233.0	NA
140	22	19	F	Filler	112	6	the	7	132.0	NA
140	22	19	F	Filler	112	6	puppy	8	136.0	NA
140	22	19	F	Filler	112	6	slept	9	133.0	NA
140	22	19	F	Filler	112	6	in	10	66.0	NA
140	22	19	F	Filler	112	6	the	11	119.0	NA
140	22	19	F	Filler	112	6	cage.	12	100.0	NA
140	22	19	F	Question	112	6	NA	NA	1483.0	1
141	22	19	F	Filler	129	7	While	1	1829.0	NA
141	22	19	F	Filler	129	7	Scott	2	133.0	NA
141	22	19	F	Filler	129	7	vacuumed	3	99.0	NA
141	22	19	F	Filler	129	7	the	4	69.0	NA
141	22	19	F	Filler	129	7	carpet	5	100.0	NA
141	22	19	F	Filler	129	7	the	6	98.0	NA
141	22	19	F	Filler	129	7	drapes	7	169.0	NA
141	22	19	F	Filler	129	7	flapped	8	66.0	NA
141	22	19	F	Filler	129	7	in	9	33.0	NA
141	22	19	F	Filler	129	7	the	10	166.0	NA
141	22	19	F	Filler	129	7	breeze.	11	102.0	NA
141	22	19	F	Question	129	7	NA	NA	1450.0	1
142	22	19	F	Filler	47	4	The	1	766.0	NA
142	22	19	F	Filler	47	4	boys	2	134.0	NA
142	22	19	F	Filler	47	4	all	3	81.0	NA
142	22	19	F	Filler	47	4	admired	4	67.0	NA
142	22	19	F	Filler	47	4	the	5	115.0	NA
142	22	19	F	Filler	47	4	singer	6	87.0	NA
142	22	19	F	Filler	47	4	of	7	130.0	NA
142	22	19	F	Filler	47	4	the	8	101.0	NA
142	22	19	F	Filler	47	4	song	9	83.0	NA
142	22	19	F	Filler	47	4	with	10	100.0	NA
142	22	19	F	Filler	47	4	the	11	100.0	NA
142	22	19	F	Filler	47	4	long	12	117.0	NA
142	22	19	F	Filler	47	4	eyelashes.	13	68.0	NA
142	22	19	F	Question	47	4	NA	NA	3450.0	1
143	22	19	F	Filler	51	4	The	1	745.0	NA
143	22	19	F	Filler	51	4	students	2	169.0	NA
143	22	19	F	Filler	51	4	were	3	49.0	NA
143	22	19	F	Filler	51	4	in	4	98.0	NA
143	22	19	F	Filler	51	4	a	5	50.0	NA
143	22	19	F	Filler	51	4	frenzy	6	236.0	NA
143	22	19	F	Filler	51	4	because	7	98.0	NA
143	22	19	F	Filler	51	4	they	8	86.0	NA
143	22	19	F	Filler	51	4	wanted	9	67.0	NA
143	22	19	F	Filler	51	4	tickets	10	101.0	NA
143	22	19	F	Filler	51	4	for	11	116.0	NA
143	22	19	F	Filler	51	4	the	12	65.0	NA
143	22	19	F	Filler	51	4	game	13	101.0	NA
143	22	19	F	Filler	51	4	tonight.	14	66.0	NA
143	22	19	F	Question	51	4	NA	NA	1350.0	1
