trial	subj	age	gender	stimulustype	item	condition	word	position	rt	correct
0	23	21	M	swets	35	3	The	1	396.0	NA
0	23	21	M	swets	35	3	landlady	2	200.0	NA
0	23	21	M	swets	35	3	of	3	266.0	NA
0	23	21	M	swets	35	3	the	4	134.0	NA
0	23	21	M	swets	35	3	businessman	5	182.0	NA
0	23	21	M	swets	35	3	who	6	217.0	NA
0	23	21	M	swets	35	3	had	7	234.0	NA
0	23	21	M	swets	35	3	locked	8	216.0	NA
0	23	21	M	swets	35	3	herself	9	201.0	NA
0	23	21	M	swets	35	3	in	10	233.0	NA
0	23	21	M	swets	35	3	the	11	183.0	NA
0	23	21	M	swets	35	3	office	12	235.0	NA
0	23	21	M	swets	35	3	received	13	249.0	NA
0	23	21	M	swets	35	3	a	14	252.0	NA
0	23	21	M	swets	35	3	phone	15	249.0	NA
0	23	21	M	swets	35	3	call.	16	267.0	NA
0	23	21	M	Question	35	3	NA	NA	4983.0	1
1	23	21	M	Filler	37	4	The	1	62.0	NA
1	23	21	M	Filler	37	4	party	2	301.0	NA
1	23	21	M	Filler	37	4	attracted	3	133.0	NA
1	23	21	M	Filler	37	4	the	4	167.0	NA
1	23	21	M	Filler	37	4	fraternity	5	149.0	NA
1	23	21	M	Filler	37	4	members	6	133.0	NA
1	23	21	M	Filler	37	4	whose	7	167.0	NA
1	23	21	M	Filler	37	4	house	8	152.0	NA
1	23	21	M	Filler	37	4	had	9	165.0	NA
1	23	21	M	Filler	37	4	been	10	968.0	NA
1	23	21	M	Filler	37	4	seized	11	200.0	NA
1	23	21	M	Filler	37	4	by	12	333.0	NA
1	23	21	M	Filler	37	4	drug	13	250.0	NA
1	23	21	M	Filler	37	4	agents.	14	334.0	NA
1	23	21	M	Question	37	4	NA	NA	2102.0	1
2	23	21	M	Filler	44	4	The	1	778.0	NA
2	23	21	M	Filler	44	4	solicitor	2	200.0	NA
2	23	21	M	Filler	44	4	wearing	3	251.0	NA
2	23	21	M	Filler	44	4	the	4	200.0	NA
2	23	21	M	Filler	44	4	new	5	200.0	NA
2	23	21	M	Filler	44	4	tuxedo	6	233.0	NA
2	23	21	M	Filler	44	4	bothered	7	216.0	NA
2	23	21	M	Filler	44	4	a	8	202.0	NA
2	23	21	M	Filler	44	4	man	9	265.0	NA
2	23	21	M	Filler	44	4	from	10	201.0	NA
2	23	21	M	Filler	44	4	New	11	218.0	NA
2	23	21	M	Filler	44	4	York.	12	281.0	NA
2	23	21	M	Question	44	4	NA	NA	1717.0	1
3	23	21	M	swets	12	1	The	1	328.0	NA
3	23	21	M	swets	12	1	maid	2	166.0	NA
3	23	21	M	swets	12	1	of	3	168.0	NA
3	23	21	M	swets	12	1	the	4	117.0	NA
3	23	21	M	swets	12	1	princess	5	166.0	NA
3	23	21	M	swets	12	1	who	6	67.0	NA
3	23	21	M	swets	12	1	scratched	7	118.0	NA
3	23	21	M	swets	12	1	herself	8	217.0	NA
3	23	21	M	swets	12	1	in	9	233.0	NA
3	23	21	M	swets	12	1	public	10	432.0	NA
3	23	21	M	swets	12	1	was	11	166.0	NA
3	23	21	M	swets	12	1	terribly	12	118.0	NA
3	23	21	M	swets	12	1	humiliated.	13	200.0	NA
3	23	21	M	Question	12	1	NA	NA	1583.0	1
4	23	21	M	Filler	129	7	While	1	145.0	NA
4	23	21	M	Filler	129	7	Scott	2	350.0	NA
4	23	21	M	Filler	129	7	vacuumed	3	115.0	NA
4	23	21	M	Filler	129	7	the	4	119.0	NA
4	23	21	M	Filler	129	7	carpet	5	382.0	NA
4	23	21	M	Filler	129	7	the	6	168.0	NA
4	23	21	M	Filler	129	7	drapes	7	150.0	NA
4	23	21	M	Filler	129	7	flapped	8	150.0	NA
4	23	21	M	Filler	129	7	in	9	333.0	NA
4	23	21	M	Filler	129	7	the	10	215.0	NA
4	23	21	M	Filler	129	7	breeze.	11	235.0	NA
4	23	21	M	Question	129	7	NA	NA	1668.0	1
5	23	21	M	Filler	38	4	Despite	1	412.0	NA
5	23	21	M	Filler	38	4	the	2	250.0	NA
5	23	21	M	Filler	38	4	lack	3	116.0	NA
5	23	21	M	Filler	38	4	of	4	118.0	NA
5	23	21	M	Filler	38	4	publicity	5	149.0	NA
5	23	21	M	Filler	38	4	many	6	149.0	NA
5	23	21	M	Filler	38	4	people	7	134.0	NA
5	23	21	M	Filler	38	4	attended	8	168.0	NA
5	23	21	M	Filler	38	4	the	9	134.0	NA
5	23	21	M	Filler	38	4	lecture.	10	149.0	NA
5	23	21	M	Question	38	4	NA	NA	1100.0	1
6	23	21	M	swets	28	2	The	1	145.0	NA
6	23	21	M	swets	28	2	nephew	2	215.0	NA
6	23	21	M	swets	28	2	of	3	100.0	NA
6	23	21	M	swets	28	2	the	4	51.0	NA
6	23	21	M	swets	28	2	baroness	5	66.0	NA
6	23	21	M	swets	28	2	who	6	83.0	NA
6	23	21	M	swets	28	2	admired	7	368.0	NA
6	23	21	M	swets	28	2	herself	8	266.0	NA
6	23	21	M	swets	28	2	an	9	185.0	NA
6	23	21	M	swets	28	2	inordinate	10	315.0	NA
6	23	21	M	swets	28	2	amount	11	284.0	NA
6	23	21	M	swets	28	2	enjoyed	12	284.0	NA
6	23	21	M	swets	28	2	all	13	317.0	NA
6	23	21	M	swets	28	2	the	14	199.0	NA
6	23	21	M	swets	28	2	attention.	15	317.0	NA
6	23	21	M	Question	28	2	NA	NA	2067.0	1
7	23	21	M	Filler	104	5	Despite	1	411.0	NA
7	23	21	M	Filler	104	5	the	2	102.0	NA
7	23	21	M	Filler	104	5	relative	3	216.0	NA
7	23	21	M	Filler	104	5	lack	4	67.0	NA
7	23	21	M	Filler	104	5	of	5	150.0	NA
7	23	21	M	Filler	104	5	rain	6	200.0	NA
7	23	21	M	Filler	104	5	the	7	67.0	NA
7	23	21	M	Filler	104	5	farmer	8	149.0	NA
7	23	21	M	Filler	104	5	harvested	9	168.0	NA
7	23	21	M	Filler	104	5	much	10	150.0	NA
7	23	21	M	Filler	104	5	wheat.	11	132.0	NA
7	23	21	M	Question	104	5	NA	NA	1451.0	1
8	23	21	M	Filler	75	5	The	1	429.0	NA
8	23	21	M	Filler	75	5	musician	2	67.0	NA
8	23	21	M	Filler	75	5	shocked	3	133.0	NA
8	23	21	M	Filler	75	5	the	4	150.0	NA
8	23	21	M	Filler	75	5	audience	5	133.0	NA
8	23	21	M	Filler	75	5	because	6	500.0	NA
8	23	21	M	Filler	75	5	they	7	233.0	NA
8	23	21	M	Filler	75	5	did	8	150.0	NA
8	23	21	M	Filler	75	5	not	9	135.0	NA
8	23	21	M	Filler	75	5	realize	10	99.0	NA
8	23	21	M	Filler	75	5	what	11	133.0	NA
8	23	21	M	Filler	75	5	these	12	100.0	NA
8	23	21	M	Filler	75	5	shows	13	85.0	NA
8	23	21	M	Filler	75	5	were	14	266.0	NA
8	23	21	M	Filler	75	5	like.	15	316.0	NA
8	23	21	M	Question	75	5	NA	NA	1367.0	1
9	23	21	M	swets	33	1	The	1	445.0	NA
9	23	21	M	swets	33	1	butler	2	116.0	NA
9	23	21	M	swets	33	1	of	3	151.0	NA
9	23	21	M	swets	33	1	the	4	132.0	NA
9	23	21	M	swets	33	1	actor	5	101.0	NA
9	23	21	M	swets	33	1	who	6	100.0	NA
9	23	21	M	swets	33	1	did	7	83.0	NA
9	23	21	M	swets	33	1	not	8	83.0	NA
9	23	21	M	swets	33	1	like	9	134.0	NA
9	23	21	M	swets	33	1	himself	10	399.0	NA
9	23	21	M	swets	33	1	very	11	385.0	NA
9	23	21	M	swets	33	1	much	12	183.0	NA
9	23	21	M	swets	33	1	caught	13	200.0	NA
9	23	21	M	swets	33	1	the	14	184.0	NA
9	23	21	M	swets	33	1	armed	15	349.0	NA
9	23	21	M	swets	33	1	robber.	16	201.0	NA
9	23	21	M	Question	33	1	NA	NA	3567.0	1
10	23	21	M	Filler	69	4	The	1	45.0	NA
10	23	21	M	Filler	69	4	tiny	2	334.0	NA
10	23	21	M	Filler	69	4	child	3	83.0	NA
10	23	21	M	Filler	69	4	rolled	4	99.0	NA
10	23	21	M	Filler	69	4	the	5	85.0	NA
10	23	21	M	Filler	69	4	piece	6	98.0	NA
10	23	21	M	Filler	69	4	of	7	85.0	NA
10	23	21	M	Filler	69	4	the	8	67.0	NA
10	23	21	M	Filler	69	4	toy	9	100.0	NA
10	23	21	M	Filler	69	4	into	10	99.0	NA
10	23	21	M	Filler	69	4	the	11	84.0	NA
10	23	21	M	Filler	69	4	next	12	167.0	NA
10	23	21	M	Filler	69	4	room	13	133.0	NA
10	23	21	M	Filler	69	4	after	14	116.0	NA
10	23	21	M	Filler	69	4	it	15	101.0	NA
10	23	21	M	Filler	69	4	broke	16	166.0	NA
10	23	21	M	Filler	69	4	off.	17	100.0	NA
10	23	21	M	Question	69	4	NA	NA	900.0	1
11	23	21	M	swets	11	3	The	1	112.0	NA
11	23	21	M	swets	11	3	mother	2	149.0	NA
11	23	21	M	swets	11	3	of	3	84.0	NA
11	23	21	M	swets	11	3	the	4	84.0	NA
11	23	21	M	swets	11	3	surgeon	5	49.0	NA
11	23	21	M	swets	11	3	who	6	67.0	NA
11	23	21	M	swets	11	3	made	7	84.0	NA
11	23	21	M	swets	11	3	a	8	116.0	NA
11	23	21	M	swets	11	3	fool	9	83.0	NA
11	23	21	M	swets	11	3	of	10	234.0	NA
11	23	21	M	swets	11	3	herself	11	100.0	NA
11	23	21	M	swets	11	3	at	12	133.0	NA
11	23	21	M	swets	11	3	the	13	117.0	NA
11	23	21	M	swets	11	3	party	14	117.0	NA
11	23	21	M	swets	11	3	was	15	166.0	NA
11	23	21	M	swets	11	3	greatly	16	200.0	NA
11	23	21	M	swets	11	3	embarrassed.	17	316.0	NA
11	23	21	M	Question	11	3	NA	NA	835.0	1
12	23	21	M	Filler	62	4	After	1	45.0	NA
12	23	21	M	Filler	62	4	much	2	182.0	NA
12	23	21	M	Filler	62	4	deliberation	3	101.0	NA
12	23	21	M	Filler	62	4	the	4	84.0	NA
12	23	21	M	Filler	62	4	jury	5	83.0	NA
12	23	21	M	Filler	62	4	found	6	67.0	NA
12	23	21	M	Filler	62	4	the	7	115.0	NA
12	23	21	M	Filler	62	4	defendant	8	100.0	NA
12	23	21	M	Filler	62	4	not	9	85.0	NA
12	23	21	M	Filler	62	4	guilty.	10	149.0	NA
12	23	21	M	Question	62	4	NA	NA	2301.0	1
13	23	21	M	swets	34	2	The	1	327.0	NA
13	23	21	M	swets	34	2	waiter	2	84.0	NA
13	23	21	M	swets	34	2	of	3	84.0	NA
13	23	21	M	swets	34	2	the	4	84.0	NA
13	23	21	M	swets	34	2	woman	5	132.0	NA
13	23	21	M	swets	34	2	who	6	100.0	NA
13	23	21	M	swets	34	2	considered	7	185.0	NA
13	23	21	M	swets	34	2	herself	8	149.0	NA
13	23	21	M	swets	34	2	a	9	150.0	NA
13	23	21	M	swets	34	2	natural	10	250.0	NA
13	23	21	M	swets	34	2	beauty	11	167.0	NA
13	23	21	M	swets	34	2	spilled	12	284.0	NA
13	23	21	M	swets	34	2	the	13	300.0	NA
13	23	21	M	swets	34	2	drinks.	14	333.0	NA
13	23	21	M	Question	34	2	NA	NA	1735.0	1
14	23	21	M	Filler	143	7	The	1	328.0	NA
14	23	21	M	Filler	143	7	lawyer	2	116.0	NA
14	23	21	M	Filler	143	7	and	3	133.0	NA
14	23	21	M	Filler	143	7	defendant	4	118.0	NA
14	23	21	M	Filler	143	7	whispered	5	117.0	NA
14	23	21	M	Filler	143	7	furiously	6	99.0	NA
14	23	21	M	Filler	143	7	during	7	150.0	NA
14	23	21	M	Filler	143	7	the	8	134.0	NA
14	23	21	M	Filler	143	7	recess.	9	132.0	NA
14	23	21	M	Question	143	7	NA	NA	4002.0	1
15	23	21	M	Filler	119	6	Everybody	1	428.0	NA
15	23	21	M	Filler	119	6	is	2	101.0	NA
15	23	21	M	Filler	119	6	wondering	3	99.0	NA
15	23	21	M	Filler	119	6	which	4	117.0	NA
15	23	21	M	Filler	119	6	software	5	132.0	NA
15	23	21	M	Filler	119	6	Gary	6	101.0	NA
15	23	21	M	Filler	119	6	installed	7	150.0	NA
15	23	21	M	Filler	119	6	without	8	134.0	NA
15	23	21	M	Filler	119	6	buying	9	134.0	NA
15	23	21	M	Filler	119	6	last	10	150.0	NA
15	23	21	M	Filler	119	6	June.	11	166.0	NA
15	23	21	M	Question	119	6	NA	NA	2534.0	1
16	23	21	M	swets	21	1	The	1	161.0	NA
16	23	21	M	swets	21	1	son	2	166.0	NA
16	23	21	M	swets	21	1	of	3	84.0	NA
16	23	21	M	swets	21	1	the	4	100.0	NA
16	23	21	M	swets	21	1	janitor	5	51.0	NA
16	23	21	M	swets	21	1	who	6	83.0	NA
16	23	21	M	swets	21	1	educated	7	67.0	NA
16	23	21	M	swets	21	1	himself	8	81.0	NA
16	23	21	M	swets	21	1	at	9	52.0	NA
16	23	21	M	swets	21	1	night	10	83.0	NA
16	23	21	M	swets	21	1	loved	11	217.0	NA
16	23	21	M	swets	21	1	going	12	165.0	NA
16	23	21	M	swets	21	1	to	13	433.0	NA
16	23	21	M	swets	21	1	the	14	117.0	NA
16	23	21	M	swets	21	1	theatre.	15	201.0	NA
16	23	21	M	Question	21	1	NA	NA	1233.0	1
17	23	21	M	Filler	103	5	The	1	329.0	NA
17	23	21	M	Filler	103	5	desperate	2	116.0	NA
17	23	21	M	Filler	103	5	thief	3	117.0	NA
17	23	21	M	Filler	103	5	ran	4	100.0	NA
17	23	21	M	Filler	103	5	over	5	100.0	NA
17	23	21	M	Filler	103	5	a	6	116.0	NA
17	23	21	M	Filler	103	5	child	7	101.0	NA
17	23	21	M	Filler	103	5	in	8	133.0	NA
17	23	21	M	Filler	103	5	an	9	251.0	NA
17	23	21	M	Filler	103	5	attempt	10	98.0	NA
17	23	21	M	Filler	103	5	to	11	100.0	NA
17	23	21	M	Filler	103	5	dodge	12	333.0	NA
17	23	21	M	Filler	103	5	the	13	67.0	NA
17	23	21	M	Filler	103	5	cops.	14	200.0	NA
17	23	21	M	Question	103	5	NA	NA	4101.0	1
18	23	21	M	Filler	110	6	While	1	194.0	NA
18	23	21	M	Filler	110	6	the	2	135.0	NA
18	23	21	M	Filler	110	6	lawyer	3	99.0	NA
18	23	21	M	Filler	110	6	was	4	67.0	NA
18	23	21	M	Filler	110	6	reading	5	84.0	NA
18	23	21	M	Filler	110	6	the	6	100.0	NA
18	23	21	M	Filler	110	6	will	7	117.0	NA
18	23	21	M	Filler	110	6	the	8	83.0	NA
18	23	21	M	Filler	110	6	contract	9	116.0	NA
18	23	21	M	Filler	110	6	remained	10	518.0	NA
18	23	21	M	Filler	110	6	on	11	100.0	NA
18	23	21	M	Filler	110	6	the	12	99.0	NA
18	23	21	M	Filler	110	6	desk.	13	166.0	NA
18	23	21	M	Question	110	6	NA	NA	1133.0	1
19	23	21	M	swets	31	2	The	1	195.0	NA
19	23	21	M	swets	31	2	aunt	2	183.0	NA
19	23	21	M	swets	31	2	of	3	133.0	NA
19	23	21	M	swets	31	2	the	4	150.0	NA
19	23	21	M	swets	31	2	milkman	5	100.0	NA
19	23	21	M	swets	31	2	who	6	84.0	NA
19	23	21	M	swets	31	2	had	7	316.0	NA
19	23	21	M	swets	31	2	to	8	133.0	NA
19	23	21	M	swets	31	2	support	9	201.0	NA
19	23	21	M	swets	31	2	himself	10	299.0	NA
19	23	21	M	swets	31	2	with	11	368.0	NA
19	23	21	M	swets	31	2	a	12	134.0	NA
19	23	21	M	swets	31	2	low	13	183.0	NA
19	23	21	M	swets	31	2	income	14	783.0	NA
19	23	21	M	swets	31	2	liked	15	333.0	NA
19	23	21	M	swets	31	2	to	16	234.0	NA
19	23	21	M	swets	31	2	fish.	17	351.0	NA
19	23	21	M	Question	31	2	NA	NA	1133.0	1
20	23	21	M	Filler	56	4	The	1	297.0	NA
20	23	21	M	Filler	56	4	actor	2	182.0	NA
20	23	21	M	Filler	56	4	said	3	116.0	NA
20	23	21	M	Filler	56	4	the	4	101.0	NA
20	23	21	M	Filler	56	4	audiences	5	133.0	NA
20	23	21	M	Filler	56	4	believed	6	100.0	NA
20	23	21	M	Filler	56	4	the	7	100.0	NA
20	23	21	M	Filler	56	4	nasty	8	84.0	NA
20	23	21	M	Filler	56	4	remarks	9	67.0	NA
20	23	21	M	Filler	56	4	made	10	134.0	NA
20	23	21	M	Filler	56	4	by	11	132.0	NA
20	23	21	M	Filler	56	4	the	12	117.0	NA
20	23	21	M	Filler	56	4	film	13	101.0	NA
20	23	21	M	Filler	56	4	critic.	14	115.0	NA
20	23	21	M	Question	56	4	NA	NA	1733.0	1
21	23	21	M	Filler	86	5	The	1	6031.0	NA
21	23	21	M	Filler	86	5	family's	2	483.0	NA
21	23	21	M	Filler	86	5	television	3	283.0	NA
21	23	21	M	Filler	86	5	stopped	4	1301.0	NA
21	23	21	M	Filler	86	5	working	5	365.0	NA
21	23	21	M	Filler	86	5	two	6	135.0	NA
21	23	21	M	Filler	86	5	days	7	115.0	NA
21	23	21	M	Filler	86	5	after	8	85.0	NA
21	23	21	M	Filler	86	5	the	9	67.0	NA
21	23	21	M	Filler	86	5	warranty	10	83.0	NA
21	23	21	M	Filler	86	5	expired.	11	132.0	NA
21	23	21	M	Question	86	5	NA	NA	1402.0	1
22	23	21	M	Filler	132	7	While	1	411.0	NA
22	23	21	M	Filler	132	7	John	2	84.0	NA
22	23	21	M	Filler	132	7	and	3	102.0	NA
22	23	21	M	Filler	132	7	Mary	4	115.0	NA
22	23	21	M	Filler	132	7	kissed	5	67.0	NA
22	23	21	M	Filler	132	7	their	6	67.0	NA
22	23	21	M	Filler	132	7	daughter	7	83.0	NA
22	23	21	M	Filler	132	7	fell	8	100.0	NA
22	23	21	M	Filler	132	7	asleep.	9	117.0	NA
22	23	21	M	Question	132	7	NA	NA	1950.0	1
23	23	21	M	Filler	79	5	Although	1	312.0	NA
23	23	21	M	Filler	79	5	the	2	117.0	NA
23	23	21	M	Filler	79	5	mechanic	3	66.0	NA
23	23	21	M	Filler	79	5	said	4	67.0	NA
23	23	21	M	Filler	79	5	the	5	82.0	NA
23	23	21	M	Filler	79	5	job	6	51.0	NA
23	23	21	M	Filler	79	5	would	7	66.0	NA
23	23	21	M	Filler	79	5	take	8	67.0	NA
23	23	21	M	Filler	79	5	four	9	66.0	NA
23	23	21	M	Filler	79	5	days	10	84.0	NA
23	23	21	M	Filler	79	5	the	11	85.0	NA
23	23	21	M	Filler	79	5	client	12	83.0	NA
23	23	21	M	Filler	79	5	didn't	13	65.0	NA
23	23	21	M	Filler	79	5	receive	14	84.0	NA
23	23	21	M	Filler	79	5	her	15	65.0	NA
23	23	21	M	Filler	79	5	car	16	85.0	NA
23	23	21	M	Filler	79	5	for	17	117.0	NA
23	23	21	M	Filler	79	5	six	18	132.0	NA
23	23	21	M	Filler	79	5	weeks.	19	417.0	NA
23	23	21	M	Question	79	5	NA	NA	2234.0	1
24	23	21	M	Filler	85	5	The	1	212.0	NA
24	23	21	M	Filler	85	5	college	2	83.0	NA
24	23	21	M	Filler	85	5	students	3	65.0	NA
24	23	21	M	Filler	85	5	were	4	35.0	NA
24	23	21	M	Filler	85	5	upset	5	33.0	NA
24	23	21	M	Filler	85	5	that	6	67.0	NA
24	23	21	M	Filler	85	5	they	7	48.0	NA
24	23	21	M	Filler	85	5	had	8	84.0	NA
24	23	21	M	Filler	85	5	an	9	51.0	NA
24	23	21	M	Filler	85	5	exam	10	66.0	NA
24	23	21	M	Filler	85	5	the	11	51.0	NA
24	23	21	M	Filler	85	5	next	12	84.0	NA
24	23	21	M	Filler	85	5	day.	13	200.0	NA
24	23	21	M	Question	85	5	NA	NA	1500.0	1
25	23	21	M	Filler	111	6	While	1	228.0	NA
25	23	21	M	Filler	111	6	the	2	117.0	NA
25	23	21	M	Filler	111	6	clown	3	83.0	NA
25	23	21	M	Filler	111	6	juggled	4	68.0	NA
25	23	21	M	Filler	111	6	the	5	66.0	NA
25	23	21	M	Filler	111	6	balls	6	34.0	NA
25	23	21	M	Filler	111	6	fell	7	67.0	NA
25	23	21	M	Filler	111	6	to	8	66.0	NA
25	23	21	M	Filler	111	6	the	9	68.0	NA
25	23	21	M	Filler	111	6	ground.	10	33.0	NA
25	23	21	M	Question	111	6	NA	NA	1166.0	1
26	23	21	M	Filler	60	4	The	1	127.0	NA
26	23	21	M	Filler	60	4	newlyweds	2	119.0	NA
26	23	21	M	Filler	60	4	were	3	99.0	NA
26	23	21	M	Filler	60	4	nervous	4	66.0	NA
26	23	21	M	Filler	60	4	about	5	50.0	NA
26	23	21	M	Filler	60	4	their	6	34.0	NA
26	23	21	M	Filler	60	4	new	7	83.0	NA
26	23	21	M	Filler	60	4	life	8	34.0	NA
26	23	21	M	Filler	60	4	together.	9	65.0	NA
26	23	21	M	Question	60	4	NA	NA	1168.0	1
27	23	21	M	Filler	89	5	Jim	1	278.0	NA
27	23	21	M	Filler	89	5	watered	2	83.0	NA
27	23	21	M	Filler	89	5	the	3	84.0	NA
27	23	21	M	Filler	89	5	tropical	4	66.0	NA
27	23	21	M	Filler	89	5	plants	5	67.0	NA
27	23	21	M	Filler	89	5	of	6	50.0	NA
27	23	21	M	Filler	89	5	his	7	51.0	NA
27	23	21	M	Filler	89	5	neighbor	8	32.0	NA
27	23	21	M	Filler	89	5	because	9	50.0	NA
27	23	21	M	Filler	89	5	she	10	34.0	NA
27	23	21	M	Filler	89	5	had	11	234.0	NA
27	23	21	M	Filler	89	5	gone	12	65.0	NA
27	23	21	M	Filler	89	5	out	13	51.0	NA
27	23	21	M	Filler	89	5	of	14	34.0	NA
27	23	21	M	Filler	89	5	town	15	201.0	NA
27	23	21	M	Filler	89	5	for	16	317.0	NA
27	23	21	M	Filler	89	5	a	17	199.0	NA
27	23	21	M	Filler	89	5	few	18	116.0	NA
27	23	21	M	Filler	89	5	days.	19	301.0	NA
27	23	21	M	Question	89	5	NA	NA	1400.0	1
28	23	21	M	swets	27	1	The	1	228.0	NA
28	23	21	M	swets	27	1	brother	2	83.0	NA
28	23	21	M	swets	27	1	of	3	52.0	NA
28	23	21	M	swets	27	1	the	4	67.0	NA
28	23	21	M	swets	27	1	butcher	5	49.0	NA
28	23	21	M	swets	27	1	who	6	51.0	NA
28	23	21	M	swets	27	1	invited	7	66.0	NA
28	23	21	M	swets	27	1	himself	8	66.0	NA
28	23	21	M	swets	27	1	to	9	68.0	NA
28	23	21	M	swets	27	1	the	10	66.0	NA
28	23	21	M	swets	27	1	party	11	49.0	NA
28	23	21	M	swets	27	1	enjoyed	12	83.0	NA
28	23	21	M	swets	27	1	it	13	85.0	NA
28	23	21	M	swets	27	1	quite	14	98.0	NA
28	23	21	M	swets	27	1	a	15	418.0	NA
28	23	21	M	swets	27	1	bit.	16	333.0	NA
28	23	21	M	Question	27	1	NA	NA	1267.0	1
29	23	21	M	Filler	83	5	The	1	29.0	NA
29	23	21	M	Filler	83	5	passengers	2	64.0	NA
29	23	21	M	Filler	83	5	screamed	3	84.0	NA
29	23	21	M	Filler	83	5	as	4	83.0	NA
29	23	21	M	Filler	83	5	the	5	83.0	NA
29	23	21	M	Filler	83	5	plane	6	51.0	NA
29	23	21	M	Filler	83	5	dipped	7	67.0	NA
29	23	21	M	Filler	83	5	and	8	49.0	NA
29	23	21	M	Filler	83	5	the	9	67.0	NA
29	23	21	M	Filler	83	5	pilots	10	66.0	NA
29	23	21	M	Filler	83	5	said	11	67.0	NA
29	23	21	M	Filler	83	5	their	12	83.0	NA
29	23	21	M	Filler	83	5	prayers	13	368.0	NA
29	23	21	M	Filler	83	5	quietly.	14	299.0	NA
29	23	21	M	Question	83	5	NA	NA	1316.0	1
30	23	21	M	Filler	82	5	The	1	262.0	NA
30	23	21	M	Filler	82	5	patient's	2	66.0	NA
30	23	21	M	Filler	82	5	seizures	3	67.0	NA
30	23	21	M	Filler	82	5	appeared	4	67.0	NA
30	23	21	M	Filler	82	5	to	5	66.0	NA
30	23	21	M	Filler	82	5	have	6	34.0	NA
30	23	21	M	Filler	82	5	been	7	66.0	NA
30	23	21	M	Filler	82	5	eliminated	8	52.0	NA
30	23	21	M	Filler	82	5	by	9	65.0	NA
30	23	21	M	Filler	82	5	the	10	66.0	NA
30	23	21	M	Filler	82	5	surgery.	11	67.0	NA
30	23	21	M	Question	82	5	NA	NA	5469.0	1
31	23	21	M	Filler	100	5	There	1	262.0	NA
31	23	21	M	Filler	100	5	was	2	117.0	NA
31	23	21	M	Filler	100	5	a	3	83.0	NA
31	23	21	M	Filler	100	5	large	4	51.0	NA
31	23	21	M	Filler	100	5	sale	5	99.0	NA
31	23	21	M	Filler	100	5	on	6	68.0	NA
31	23	21	M	Filler	100	5	stationary	7	64.0	NA
31	23	21	M	Filler	100	5	and	8	68.0	NA
31	23	21	M	Filler	100	5	office	9	67.0	NA
31	23	21	M	Filler	100	5	supplies	10	83.0	NA
31	23	21	M	Filler	100	5	at	11	51.0	NA
31	23	21	M	Filler	100	5	the	12	33.0	NA
31	23	21	M	Filler	100	5	student	13	66.0	NA
31	23	21	M	Filler	100	5	bookstore.	14	68.0	NA
31	23	21	M	Question	100	5	NA	NA	998.0	1
32	23	21	M	Filler	127	7	While	1	177.0	NA
32	23	21	M	Filler	127	7	Linda	2	132.0	NA
32	23	21	M	Filler	127	7	wrote	3	85.0	NA
32	23	21	M	Filler	127	7	the	4	65.0	NA
32	23	21	M	Filler	127	7	letter	5	52.0	NA
32	23	21	M	Filler	127	7	arrived	6	66.0	NA
32	23	21	M	Filler	127	7	from	7	51.0	NA
32	23	21	M	Filler	127	7	Chicago.	8	82.0	NA
32	23	21	M	Question	127	7	NA	NA	1900.0	1
33	23	21	M	Filler	122	6	They	1	293.0	NA
33	23	21	M	Filler	122	6	don't	2	52.0	NA
33	23	21	M	Filler	122	6	know	3	66.0	NA
33	23	21	M	Filler	122	6	which	4	67.0	NA
33	23	21	M	Filler	122	6	family	5	49.0	NA
33	23	21	M	Filler	122	6	the	6	68.0	NA
33	23	21	M	Filler	122	6	hijackers	7	50.0	NA
33	23	21	M	Filler	122	6	held	8	50.0	NA
33	23	21	M	Filler	122	6	hostage	9	50.0	NA
33	23	21	M	Filler	122	6	but	10	49.0	NA
33	23	21	M	Filler	122	6	didn't	11	83.0	NA
33	23	21	M	Filler	122	6	hurt	12	101.0	NA
33	23	21	M	Filler	122	6	the	13	67.0	NA
33	23	21	M	Filler	122	6	children	14	67.0	NA
33	23	21	M	Filler	122	6	of	15	50.0	NA
33	23	21	M	Filler	122	6	too	16	334.0	NA
33	23	21	M	Filler	122	6	much.	17	349.0	NA
33	23	21	M	Question	122	6	NA	NA	3168.0	1
34	23	21	M	Filler	50	4	The	1	227.0	NA
34	23	21	M	Filler	50	4	new	2	84.0	NA
34	23	21	M	Filler	50	4	language	3	66.0	NA
34	23	21	M	Filler	50	4	requirement	4	68.0	NA
34	23	21	M	Filler	50	4	made	5	33.0	NA
34	23	21	M	Filler	50	4	all	6	66.0	NA
34	23	21	M	Filler	50	4	the	7	51.0	NA
34	23	21	M	Filler	50	4	students	8	51.0	NA
34	23	21	M	Filler	50	4	say	9	65.0	NA
34	23	21	M	Filler	50	4	bad	10	50.0	NA
34	23	21	M	Filler	50	4	things	11	67.0	NA
34	23	21	M	Filler	50	4	about	12	51.0	NA
34	23	21	M	Filler	50	4	the	13	67.0	NA
34	23	21	M	Filler	50	4	dean	14	149.0	NA
34	23	21	M	Filler	50	4	of	15	100.0	NA
34	23	21	M	Filler	50	4	the	16	284.0	NA
34	23	21	M	Filler	50	4	college.	17	65.0	NA
34	23	21	M	Question	50	4	NA	NA	1034.0	1
35	23	21	M	Filler	92	5	The	1	11.0	NA
35	23	21	M	Filler	92	5	personal	2	135.0	NA
35	23	21	M	Filler	92	5	trainer	3	99.0	NA
35	23	21	M	Filler	92	5	was	4	52.0	NA
35	23	21	M	Filler	92	5	popular	5	49.0	NA
35	23	21	M	Filler	92	5	among	6	67.0	NA
35	23	21	M	Filler	92	5	athletes	7	50.0	NA
35	23	21	M	Filler	92	5	after	8	67.0	NA
35	23	21	M	Filler	92	5	he	9	50.0	NA
35	23	21	M	Filler	92	5	helped	10	116.0	NA
35	23	21	M	Filler	92	5	the	11	199.0	NA
35	23	21	M	Filler	92	5	bodybuilder	12	601.0	NA
35	23	21	M	Filler	92	5	win	13	284.0	NA
35	23	21	M	Filler	92	5	the	14	283.0	NA
35	23	21	M	Filler	92	5	competition.	15	283.0	NA
35	23	21	M	Question	92	5	NA	NA	1684.0	1
36	23	21	M	Filler	47	4	The	1	212.0	NA
36	23	21	M	Filler	47	4	boys	2	67.0	NA
36	23	21	M	Filler	47	4	all	3	66.0	NA
36	23	21	M	Filler	47	4	admired	4	50.0	NA
36	23	21	M	Filler	47	4	the	5	67.0	NA
36	23	21	M	Filler	47	4	singer	6	182.0	NA
36	23	21	M	Filler	47	4	of	7	51.0	NA
36	23	21	M	Filler	47	4	the	8	51.0	NA
36	23	21	M	Filler	47	4	song	9	83.0	NA
36	23	21	M	Filler	47	4	with	10	50.0	NA
36	23	21	M	Filler	47	4	the	11	35.0	NA
36	23	21	M	Filler	47	4	long	12	83.0	NA
36	23	21	M	Filler	47	4	eyelashes.	13	67.0	NA
36	23	21	M	Question	47	4	NA	NA	1067.0	1
37	23	21	M	Filler	109	6	While	1	228.0	NA
37	23	21	M	Filler	109	6	the	2	66.0	NA
37	23	21	M	Filler	109	6	farmer	3	51.0	NA
37	23	21	M	Filler	109	6	steered	4	66.0	NA
37	23	21	M	Filler	109	6	the	5	68.0	NA
37	23	21	M	Filler	109	6	truck	6	48.0	NA
37	23	21	M	Filler	109	6	the	7	51.0	NA
37	23	21	M	Filler	109	6	tractor	8	51.0	NA
37	23	21	M	Filler	109	6	pulled	9	65.0	NA
37	23	21	M	Filler	109	6	the	10	383.0	NA
37	23	21	M	Filler	109	6	plough.	11	200.0	NA
37	23	21	M	Question	109	6	NA	NA	1068.0	1
38	23	21	M	Filler	97	5	The	1	263.0	NA
38	23	21	M	Filler	97	5	tall	2	66.0	NA
38	23	21	M	Filler	97	5	man	3	83.0	NA
38	23	21	M	Filler	97	5	laughed	4	83.0	NA
38	23	21	M	Filler	97	5	at	5	33.0	NA
38	23	21	M	Filler	97	5	the	6	50.0	NA
38	23	21	M	Filler	97	5	clumsy	7	51.0	NA
38	23	21	M	Filler	97	5	child	8	83.0	NA
38	23	21	M	Filler	97	5	who	9	51.0	NA
38	23	21	M	Filler	97	5	spilled	10	49.0	NA
38	23	21	M	Filler	97	5	the	11	67.0	NA
38	23	21	M	Filler	97	5	milk	12	117.0	NA
38	23	21	M	Filler	97	5	on	13	134.0	NA
38	23	21	M	Filler	97	5	himself.	14	383.0	NA
38	23	21	M	Question	97	5	NA	NA	1032.0	1
39	23	21	M	swets	30	1	The	1	78.0	NA
39	23	21	M	swets	30	1	maid	2	81.0	NA
39	23	21	M	swets	30	1	of	3	51.0	NA
39	23	21	M	swets	30	1	the	4	51.0	NA
39	23	21	M	swets	30	1	baroness	5	34.0	NA
39	23	21	M	swets	30	1	who	6	81.0	NA
39	23	21	M	swets	30	1	prepared	7	68.0	NA
39	23	21	M	swets	30	1	herself	8	199.0	NA
39	23	21	M	swets	30	1	very	9	118.0	NA
39	23	21	M	swets	30	1	thoroughly	10	150.0	NA
39	23	21	M	swets	30	1	came	11	149.0	NA
39	23	21	M	swets	30	1	from	12	134.0	NA
39	23	21	M	swets	30	1	the	13	117.0	NA
39	23	21	M	swets	30	1	south.	14	183.0	NA
39	23	21	M	Question	30	1	NA	NA	1200.0	1
40	23	21	M	Filler	41	4	While	1	245.0	NA
40	23	21	M	Filler	41	4	the	2	66.0	NA
40	23	21	M	Filler	41	4	babysitter	3	83.0	NA
40	23	21	M	Filler	41	4	watched	4	50.0	NA
40	23	21	M	Filler	41	4	soap	5	34.0	NA
40	23	21	M	Filler	41	4	operas	6	68.0	NA
40	23	21	M	Filler	41	4	the	7	82.0	NA
40	23	21	M	Filler	41	4	child	8	284.0	NA
40	23	21	M	Filler	41	4	poured	9	66.0	NA
40	23	21	M	Filler	41	4	honey	10	84.0	NA
40	23	21	M	Filler	41	4	all	11	99.0	NA
40	23	21	M	Filler	41	4	over	12	102.0	NA
40	23	21	M	Filler	41	4	the	13	83.0	NA
40	23	21	M	Filler	41	4	floor.	14	67.0	NA
40	23	21	M	Question	41	4	NA	NA	1367.0	1
41	23	21	M	Filler	95	5	The	1	462.0	NA
41	23	21	M	Filler	95	5	receptionist	2	532.0	NA
41	23	21	M	Filler	95	5	of	3	119.0	NA
41	23	21	M	Filler	95	5	the	4	250.0	NA
41	23	21	M	Filler	95	5	company	5	167.0	NA
41	23	21	M	Filler	95	5	went	6	133.0	NA
41	23	21	M	Filler	95	5	home	7	132.0	NA
41	23	21	M	Filler	95	5	sick	8	85.0	NA
41	23	21	M	Filler	95	5	before	9	84.0	NA
41	23	21	M	Filler	95	5	moving	10	83.0	NA
41	23	21	M	Filler	95	5	across	11	100.0	NA
41	23	21	M	Filler	95	5	town.	12	99.0	NA
41	23	21	M	Question	95	5	NA	NA	2601.0	1
42	23	21	M	swets	29	3	The	1	179.0	NA
42	23	21	M	swets	29	3	daughter	2	100.0	NA
42	23	21	M	swets	29	3	of	3	66.0	NA
42	23	21	M	swets	29	3	the	4	84.0	NA
42	23	21	M	swets	29	3	colonel	5	51.0	NA
42	23	21	M	swets	29	3	who	6	49.0	NA
42	23	21	M	swets	29	3	enjoyed	7	84.0	NA
42	23	21	M	swets	29	3	herself	8	67.0	NA
42	23	21	M	swets	29	3	a	9	82.0	NA
42	23	21	M	swets	29	3	lot	10	83.0	NA
42	23	21	M	swets	29	3	was	11	68.0	NA
42	23	21	M	swets	29	3	out	12	65.0	NA
42	23	21	M	swets	29	3	on	13	52.0	NA
42	23	21	M	swets	29	3	the	14	65.0	NA
42	23	21	M	swets	29	3	balcony.	15	67.0	NA
42	23	21	M	Question	29	3	NA	NA	967.0	1
43	23	21	M	Filler	115	6	As	1	62.0	NA
43	23	21	M	Filler	115	6	Elaine	2	133.0	NA
43	23	21	M	Filler	115	6	and	3	84.0	NA
43	23	21	M	Filler	115	6	Robert	4	67.0	NA
43	23	21	M	Filler	115	6	fought	5	82.0	NA
43	23	21	M	Filler	115	6	the	6	234.0	NA
43	23	21	M	Filler	115	6	mosquitoes	7	68.0	NA
43	23	21	M	Filler	115	6	whined	8	82.0	NA
43	23	21	M	Filler	115	6	annoyingly.	9	584.0	NA
43	23	21	M	Question	115	6	NA	NA	1218.0	1
44	23	21	M	swets	10	2	The	1	161.0	NA
44	23	21	M	swets	10	2	uncle	2	83.0	NA
44	23	21	M	swets	10	2	of	3	83.0	NA
44	23	21	M	swets	10	2	the	4	51.0	NA
44	23	21	M	swets	10	2	nun	5	83.0	NA
44	23	21	M	swets	10	2	who	6	50.0	NA
44	23	21	M	swets	10	2	lost	7	67.0	NA
44	23	21	M	swets	10	2	herself	8	66.0	NA
44	23	21	M	swets	10	2	in	9	68.0	NA
44	23	21	M	swets	10	2	thought	10	116.0	NA
44	23	21	M	swets	10	2	was	11	67.0	NA
44	23	21	M	swets	10	2	disturbed	12	116.0	NA
44	23	21	M	swets	10	2	by	13	117.0	NA
44	23	21	M	swets	10	2	the	14	133.0	NA
44	23	21	M	swets	10	2	noise.	15	133.0	NA
44	23	21	M	Question	10	2	NA	NA	1701.0	1
45	23	21	M	Filler	58	4	The	1	45.0	NA
45	23	21	M	Filler	58	4	white	2	116.0	NA
45	23	21	M	Filler	58	4	dog	3	84.0	NA
45	23	21	M	Filler	58	4	bit	4	82.0	NA
45	23	21	M	Filler	58	4	the	5	34.0	NA
45	23	21	M	Filler	58	4	ankle	6	83.0	NA
45	23	21	M	Filler	58	4	of	7	50.0	NA
45	23	21	M	Filler	58	4	the	8	84.0	NA
45	23	21	M	Filler	58	4	child.	9	116.0	NA
45	23	21	M	Question	58	4	NA	NA	1135.0	1
46	23	21	M	swets	15	1	The	1	79.0	NA
46	23	21	M	swets	15	1	sister	2	149.0	NA
46	23	21	M	swets	15	1	of	3	84.0	NA
46	23	21	M	swets	15	1	the	4	49.0	NA
46	23	21	M	swets	15	1	beautician	5	67.0	NA
46	23	21	M	swets	15	1	who	6	67.0	NA
46	23	21	M	swets	15	1	cut	7	66.0	NA
46	23	21	M	swets	15	1	herself	8	83.0	NA
46	23	21	M	swets	15	1	on	9	84.0	NA
46	23	21	M	swets	15	1	the	10	201.0	NA
46	23	21	M	swets	15	1	broken	11	115.0	NA
46	23	21	M	swets	15	1	glass	12	184.0	NA
46	23	21	M	swets	15	1	phoned	13	150.0	NA
46	23	21	M	swets	15	1	for	14	117.0	NA
46	23	21	M	swets	15	1	a	15	117.0	NA
46	23	21	M	swets	15	1	doctor.	16	451.0	NA
46	23	21	M	Question	15	1	NA	NA	1032.0	1
47	23	21	M	Filler	54	4	The	1	11.0	NA
47	23	21	M	Filler	54	4	video	2	132.0	NA
47	23	21	M	Filler	54	4	screen	3	85.0	NA
47	23	21	M	Filler	54	4	of	4	67.0	NA
47	23	21	M	Filler	54	4	the	5	66.0	NA
47	23	21	M	Filler	54	4	monitor	6	83.0	NA
47	23	21	M	Filler	54	4	made	7	216.0	NA
47	23	21	M	Filler	54	4	strange	8	51.0	NA
47	23	21	M	Filler	54	4	noises	9	50.0	NA
47	23	21	M	Filler	54	4	and	10	150.0	NA
47	23	21	M	Filler	54	4	started	11	152.0	NA
47	23	21	M	Filler	54	4	emitting	12	133.0	NA
47	23	21	M	Filler	54	4	strange	13	115.0	NA
47	23	21	M	Filler	54	4	flashes.	14	119.0	NA
47	23	21	M	Question	54	4	NA	NA	1965.0	1
48	23	21	M	Filler	87	5	The	1	145.0	NA
48	23	21	M	Filler	87	5	car	2	99.0	NA
48	23	21	M	Filler	87	5	chased	3	68.0	NA
48	23	21	M	Filler	87	5	the	4	51.0	NA
48	23	21	M	Filler	87	5	robber	5	66.0	NA
48	23	21	M	Filler	87	5	of	6	50.0	NA
48	23	21	M	Filler	87	5	the	7	67.0	NA
48	23	21	M	Filler	87	5	bank	8	33.0	NA
48	23	21	M	Filler	87	5	into	9	67.0	NA
48	23	21	M	Filler	87	5	a	10	83.0	NA
48	23	21	M	Filler	87	5	narrow	11	67.0	NA
48	23	21	M	Filler	87	5	alley.	12	234.0	NA
48	23	21	M	Question	87	5	NA	NA	1632.0	1
49	23	21	M	Filler	126	6	The	1	162.0	NA
49	23	21	M	Filler	126	6	boxes	2	84.0	NA
49	23	21	M	Filler	126	6	and	3	65.0	NA
49	23	21	M	Filler	126	6	hangers	4	51.0	NA
49	23	21	M	Filler	126	6	had	5	84.0	NA
49	23	21	M	Filler	126	6	been	6	67.0	NA
49	23	21	M	Filler	126	6	stuffed	7	49.0	NA
49	23	21	M	Filler	126	6	in	8	67.0	NA
49	23	21	M	Filler	126	6	the	9	83.0	NA
49	23	21	M	Filler	126	6	closet.	10	67.0	NA
49	23	21	M	Question	126	6	NA	NA	966.0	1
50	23	21	M	Filler	139	7	Laurie	1	162.0	NA
50	23	21	M	Filler	139	7	asked	2	83.0	NA
50	23	21	M	Filler	139	7	which	3	66.0	NA
50	23	21	M	Filler	139	7	truck	4	67.0	NA
50	23	21	M	Filler	139	7	the	5	52.0	NA
50	23	21	M	Filler	139	7	dealership	6	84.0	NA
50	23	21	M	Filler	139	7	sold	7	82.0	NA
50	23	21	M	Filler	139	7	but	8	301.0	NA
50	23	21	M	Filler	139	7	didn't	9	82.0	NA
50	23	21	M	Filler	139	7	paint	10	416.0	NA
50	23	21	M	Filler	139	7	completely.	11	718.0	NA
50	23	21	M	Question	139	7	NA	NA	1966.0	1
51	23	21	M	Filler	114	6	While	1	112.0	NA
51	23	21	M	Filler	114	6	the	2	117.0	NA
51	23	21	M	Filler	114	6	winners	3	99.0	NA
51	23	21	M	Filler	114	6	were	4	84.0	NA
51	23	21	M	Filler	114	6	kissing	5	84.0	NA
51	23	21	M	Filler	114	6	the	6	83.0	NA
51	23	21	M	Filler	114	6	crowd	7	67.0	NA
51	23	21	M	Filler	114	6	cheered	8	67.0	NA
51	23	21	M	Filler	114	6	wildly.	9	65.0	NA
51	23	21	M	Question	114	6	NA	NA	833.0	1
52	23	21	M	swets	8	3	The	1	262.0	NA
52	23	21	M	swets	8	3	brother	2	100.0	NA
52	23	21	M	swets	8	3	of	3	66.0	NA
52	23	21	M	swets	8	3	the	4	50.0	NA
52	23	21	M	swets	8	3	seamstress	5	66.0	NA
52	23	21	M	swets	8	3	who	6	50.0	NA
52	23	21	M	swets	8	3	entertained	7	50.0	NA
52	23	21	M	swets	8	3	himself	8	50.0	NA
52	23	21	M	swets	8	3	most	9	68.0	NA
52	23	21	M	swets	8	3	evenings	10	48.0	NA
52	23	21	M	swets	8	3	was	11	68.0	NA
52	23	21	M	swets	8	3	reading	12	750.0	NA
52	23	21	M	swets	8	3	a	13	134.0	NA
52	23	21	M	swets	8	3	book.	14	332.0	NA
52	23	21	M	Question	8	3	NA	NA	1100.0	1
53	23	21	M	Filler	116	6	As	1	345.0	NA
53	23	21	M	Filler	116	6	the	2	133.0	NA
53	23	21	M	Filler	116	6	survivors	3	150.0	NA
53	23	21	M	Filler	116	6	were	4	117.0	NA
53	23	21	M	Filler	116	6	embracing	5	151.0	NA
53	23	21	M	Filler	116	6	the	6	115.0	NA
53	23	21	M	Filler	116	6	firefighter	7	134.0	NA
53	23	21	M	Filler	116	6	coughed	8	117.0	NA
53	23	21	M	Filler	116	6	violently.	9	101.0	NA
53	23	21	M	Question	116	6	NA	NA	1199.0	1
54	23	21	M	Filler	140	7	The	1	262.0	NA
54	23	21	M	Filler	140	7	investigators	2	68.0	NA
54	23	21	M	Filler	140	7	asked	3	100.0	NA
54	23	21	M	Filler	140	7	which	4	82.0	NA
54	23	21	M	Filler	140	7	mansion	5	100.0	NA
54	23	21	M	Filler	140	7	the	6	100.0	NA
54	23	21	M	Filler	140	7	owner	7	100.0	NA
54	23	21	M	Filler	140	7	sold	8	84.0	NA
54	23	21	M	Filler	140	7	and	9	67.0	NA
54	23	21	M	Filler	140	7	didn't	10	83.0	NA
54	23	21	M	Filler	140	7	repair	11	50.0	NA
54	23	21	M	Filler	140	7	ten	12	100.0	NA
54	23	21	M	Filler	140	7	years	13	416.0	NA
54	23	21	M	Filler	140	7	ago.	14	299.0	NA
54	23	21	M	Question	140	7	NA	NA	1568.0	1
55	23	21	M	swets	1	2	The	1	178.0	NA
55	23	21	M	swets	1	2	brother	2	117.0	NA
55	23	21	M	swets	1	2	of	3	83.0	NA
55	23	21	M	swets	1	2	the	4	67.0	NA
55	23	21	M	swets	1	2	actress	5	66.0	NA
55	23	21	M	swets	1	2	who	6	84.0	NA
55	23	21	M	swets	1	2	called	7	83.0	NA
55	23	21	M	swets	1	2	attention	8	68.0	NA
55	23	21	M	swets	1	2	to	9	66.0	NA
55	23	21	M	swets	1	2	herself	10	66.0	NA
55	23	21	M	swets	1	2	on	11	50.0	NA
55	23	21	M	swets	1	2	the	12	67.0	NA
55	23	21	M	swets	1	2	balcony	13	66.0	NA
55	23	21	M	swets	1	2	was	14	35.0	NA
55	23	21	M	swets	1	2	under	15	83.0	NA
55	23	21	M	swets	1	2	investigation.	16	34.0	NA
55	23	21	M	Question	1	2	NA	NA	1400.0	1
56	23	21	M	Filler	88	5	The	1	178.0	NA
56	23	21	M	Filler	88	5	woman's	2	133.0	NA
56	23	21	M	Filler	88	5	posture	3	85.0	NA
56	23	21	M	Filler	88	5	began	4	82.0	NA
56	23	21	M	Filler	88	5	to	5	67.0	NA
56	23	21	M	Filler	88	5	go	6	82.0	NA
56	23	21	M	Filler	88	5	bad	7	84.0	NA
56	23	21	M	Filler	88	5	because	8	67.0	NA
56	23	21	M	Filler	88	5	of	9	51.0	NA
56	23	21	M	Filler	88	5	her	10	51.0	NA
56	23	21	M	Filler	88	5	constant	11	67.0	NA
56	23	21	M	Filler	88	5	slumping.	12	82.0	NA
56	23	21	M	Question	88	5	NA	NA	1801.0	1
57	23	21	M	Filler	73	5	My	1	279.0	NA
57	23	21	M	Filler	73	5	cousins	2	115.0	NA
57	23	21	M	Filler	73	5	admired	3	117.0	NA
57	23	21	M	Filler	73	5	the	4	118.0	NA
57	23	21	M	Filler	73	5	singer	5	83.0	NA
57	23	21	M	Filler	73	5	although	6	68.0	NA
57	23	21	M	Filler	73	5	she	7	84.0	NA
57	23	21	M	Filler	73	5	never	8	83.0	NA
57	23	21	M	Filler	73	5	became	9	83.0	NA
57	23	21	M	Filler	73	5	popular.	10	82.0	NA
57	23	21	M	Question	73	5	NA	NA	1068.0	1
58	23	21	M	swets	25	2	The	1	278.0	NA
58	23	21	M	swets	25	2	grandfather	2	118.0	NA
58	23	21	M	swets	25	2	of	3	115.0	NA
58	23	21	M	swets	25	2	the	4	84.0	NA
58	23	21	M	swets	25	2	stewardess	5	83.0	NA
58	23	21	M	swets	25	2	who	6	83.0	NA
58	23	21	M	swets	25	2	treated	7	84.0	NA
58	23	21	M	swets	25	2	herself	8	83.0	NA
58	23	21	M	swets	25	2	to	9	84.0	NA
58	23	21	M	swets	25	2	an	10	67.0	NA
58	23	21	M	swets	25	2	ice-cream	11	199.0	NA
58	23	21	M	swets	25	2	cone	12	283.0	NA
58	23	21	M	swets	25	2	was	13	118.0	NA
58	23	21	M	swets	25	2	waiting	14	200.0	NA
58	23	21	M	swets	25	2	at	15	183.0	NA
58	23	21	M	swets	25	2	home.	16	134.0	NA
58	23	21	M	Question	25	2	NA	NA	966.0	1
59	23	21	M	Filler	57	4	The	1	312.0	NA
59	23	21	M	Filler	57	4	architect	2	100.0	NA
59	23	21	M	Filler	57	4	was	3	116.0	NA
59	23	21	M	Filler	57	4	embarrassed	4	101.0	NA
59	23	21	M	Filler	57	4	by	5	83.0	NA
59	23	21	M	Filler	57	4	the	6	66.0	NA
59	23	21	M	Filler	57	4	memo	7	84.0	NA
59	23	21	M	Filler	57	4	of	8	33.0	NA
59	23	21	M	Filler	57	4	the	9	133.0	NA
59	23	21	M	Filler	57	4	engineer	10	85.0	NA
59	23	21	M	Filler	57	4	because	11	133.0	NA
59	23	21	M	Filler	57	4	it	12	316.0	NA
59	23	21	M	Filler	57	4	said	13	101.0	NA
59	23	21	M	Filler	57	4	that	14	117.0	NA
59	23	21	M	Filler	57	4	his	15	150.0	NA
59	23	21	M	Filler	57	4	building	16	282.0	NA
59	23	21	M	Filler	57	4	would	17	183.0	NA
59	23	21	M	Filler	57	4	collapse.	18	168.0	NA
59	23	21	M	Question	57	4	NA	NA	1116.0	1
60	23	21	M	Filler	46	4	The	1	262.0	NA
60	23	21	M	Filler	46	4	preacher	2	117.0	NA
60	23	21	M	Filler	46	4	of	3	116.0	NA
60	23	21	M	Filler	46	4	the	4	100.0	NA
60	23	21	M	Filler	46	4	congregation	5	99.0	NA
60	23	21	M	Filler	46	4	had	6	68.0	NA
60	23	21	M	Filler	46	4	given	7	82.0	NA
60	23	21	M	Filler	46	4	a	8	85.0	NA
60	23	21	M	Filler	46	4	sermon	9	199.0	NA
60	23	21	M	Filler	46	4	at	10	100.0	NA
60	23	21	M	Filler	46	4	a	11	117.0	NA
60	23	21	M	Filler	46	4	local	12	100.0	NA
60	23	21	M	Filler	46	4	school.	13	117.0	NA
60	23	21	M	Question	46	4	NA	NA	1068.0	1
61	23	21	M	Filler	59	4	The	1	445.0	NA
61	23	21	M	Filler	59	4	conductor	2	233.0	NA
61	23	21	M	Filler	59	4	of	3	68.0	NA
61	23	21	M	Filler	59	4	the	4	83.0	NA
61	23	21	M	Filler	59	4	orchestra	5	99.0	NA
61	23	21	M	Filler	59	4	with	6	151.0	NA
61	23	21	M	Filler	59	4	the	7	117.0	NA
61	23	21	M	Filler	59	4	bald	8	116.0	NA
61	23	21	M	Filler	59	4	head	9	68.0	NA
61	23	21	M	Filler	59	4	plays	10	83.0	NA
61	23	21	M	Filler	59	4	excellently.	11	84.0	NA
61	23	21	M	Question	59	4	NA	NA	1732.0	1
62	23	21	M	swets	5	3	The	1	312.0	NA
62	23	21	M	swets	5	3	aunt	2	83.0	NA
62	23	21	M	swets	5	3	of	3	84.0	NA
62	23	21	M	swets	5	3	the	4	100.0	NA
62	23	21	M	swets	5	3	bishop	5	67.0	NA
62	23	21	M	swets	5	3	who	6	66.0	NA
62	23	21	M	swets	5	3	injured	7	150.0	NA
62	23	21	M	swets	5	3	herself	8	50.0	NA
62	23	21	M	swets	5	3	last	9	67.0	NA
62	23	21	M	swets	5	3	summer	10	68.0	NA
62	23	21	M	swets	5	3	was	11	82.0	NA
62	23	21	M	swets	5	3	concerned	12	83.0	NA
62	23	21	M	swets	5	3	about	13	151.0	NA
62	23	21	M	swets	5	3	the	14	349.0	NA
62	23	21	M	swets	5	3	infection.	15	67.0	NA
62	23	21	M	Question	5	3	NA	NA	2103.0	1
63	23	21	M	Filler	118	6	As	1	296.0	NA
63	23	21	M	Filler	118	6	the	2	84.0	NA
63	23	21	M	Filler	118	6	dog	3	98.0	NA
63	23	21	M	Filler	118	6	ran	4	84.0	NA
63	23	21	M	Filler	118	6	Wanda	5	67.0	NA
63	23	21	M	Filler	118	6	watched	6	67.0	NA
63	23	21	M	Filler	118	6	from	7	50.0	NA
63	23	21	M	Filler	118	6	the	8	100.0	NA
63	23	21	M	Filler	118	6	window.	9	483.0	NA
63	23	21	M	Question	118	6	NA	NA	1033.0	1
64	23	21	M	Filler	137	7	When	1	277.0	NA
64	23	21	M	Filler	137	7	Leslie	2	84.0	NA
64	23	21	M	Filler	137	7	was	3	67.0	NA
64	23	21	M	Filler	137	7	sneezing	4	99.0	NA
64	23	21	M	Filler	137	7	her	5	51.0	NA
64	23	21	M	Filler	137	7	friends	6	66.0	NA
64	23	21	M	Filler	137	7	laughed	7	85.0	NA
64	23	21	M	Filler	137	7	at	8	65.0	NA
64	23	21	M	Filler	137	7	her.	9	51.0	NA
64	23	21	M	Question	137	7	NA	NA	834.0	1
65	23	21	M	Filler	134	7	As	1	278.0	NA
65	23	21	M	Filler	134	7	Shawnie	2	67.0	NA
65	23	21	M	Filler	134	7	and	3	82.0	NA
65	23	21	M	Filler	134	7	Nick	4	68.0	NA
65	23	21	M	Filler	134	7	were	5	50.0	NA
65	23	21	M	Filler	134	7	embracing	6	99.0	NA
65	23	21	M	Filler	134	7	the	7	51.0	NA
65	23	21	M	Filler	134	7	doctor	8	84.0	NA
65	23	21	M	Filler	134	7	the	9	98.0	NA
65	23	21	M	Filler	134	7	visitor	10	102.0	NA
65	23	21	M	Filler	134	7	entered	11	98.0	NA
65	23	21	M	Filler	134	7	the	12	386.0	NA
65	23	21	M	Filler	134	7	room.	13	281.0	NA
65	23	21	M	Question	134	7	NA	NA	1134.0	1
66	23	21	M	Filler	113	6	While	1	311.0	NA
66	23	21	M	Filler	113	6	Noah	2	52.0	NA
66	23	21	M	Filler	113	6	was	3	98.0	NA
66	23	21	M	Filler	113	6	waking	4	67.0	NA
66	23	21	M	Filler	113	6	up	5	67.0	NA
66	23	21	M	Filler	113	6	the	6	66.0	NA
66	23	21	M	Filler	113	6	man	7	35.0	NA
66	23	21	M	Filler	113	6	the	8	82.0	NA
66	23	21	M	Filler	113	6	neighbor	9	67.0	NA
66	23	21	M	Filler	113	6	coughed	10	34.0	NA
66	23	21	M	Filler	113	6	loudly.	11	65.0	NA
66	23	21	M	Question	113	6	NA	NA	1501.0	1
67	23	21	M	swets	20	3	The	1	160.0	NA
67	23	21	M	swets	20	3	sister	2	201.0	NA
67	23	21	M	swets	20	3	of	3	84.0	NA
67	23	21	M	swets	20	3	the	4	83.0	NA
67	23	21	M	swets	20	3	count	5	66.0	NA
67	23	21	M	swets	20	3	who	6	51.0	NA
67	23	21	M	swets	20	3	crippled	7	66.0	NA
67	23	21	M	swets	20	3	herself	8	67.0	NA
67	23	21	M	swets	20	3	by	9	133.0	NA
67	23	21	M	swets	20	3	falling	10	100.0	NA
67	23	21	M	swets	20	3	off	11	117.0	NA
67	23	21	M	swets	20	3	a	12	67.0	NA
67	23	21	M	swets	20	3	horse	13	100.0	NA
67	23	21	M	swets	20	3	took	14	100.0	NA
67	23	21	M	swets	20	3	a	15	100.0	NA
67	23	21	M	swets	20	3	long	16	316.0	NA
67	23	21	M	swets	20	3	time	17	167.0	NA
67	23	21	M	swets	20	3	to	18	319.0	NA
67	23	21	M	swets	20	3	get	19	182.0	NA
67	23	21	M	swets	20	3	over	20	250.0	NA
67	23	21	M	swets	20	3	it.	21	249.0	NA
67	23	21	M	Question	20	3	NA	NA	984.0	1
68	23	21	M	Filler	81	5	The	1	361.0	NA
68	23	21	M	Filler	81	5	stubborn	2	84.0	NA
68	23	21	M	Filler	81	5	old	3	99.0	NA
68	23	21	M	Filler	81	5	man	4	67.0	NA
68	23	21	M	Filler	81	5	criticized	5	67.0	NA
68	23	21	M	Filler	81	5	everything	6	52.0	NA
68	23	21	M	Filler	81	5	that	7	50.0	NA
68	23	21	M	Filler	81	5	the	8	65.0	NA
68	23	21	M	Filler	81	5	young	9	117.0	NA
68	23	21	M	Filler	81	5	student	10	50.0	NA
68	23	21	M	Filler	81	5	did.	11	68.0	NA
68	23	21	M	Question	81	5	NA	NA	1000.0	1
69	23	21	M	Filler	121	6	The	1	312.0	NA
69	23	21	M	Filler	121	6	ecologist	2	49.0	NA
69	23	21	M	Filler	121	6	wondered	3	100.0	NA
69	23	21	M	Filler	121	6	which	4	83.0	NA
69	23	21	M	Filler	121	6	plants	5	68.0	NA
69	23	21	M	Filler	121	6	the	6	133.0	NA
69	23	21	M	Filler	121	6	scientist	7	69.0	NA
69	23	21	M	Filler	121	6	grew	8	98.0	NA
69	23	21	M	Filler	121	6	but	9	67.0	NA
69	23	21	M	Filler	121	6	didn't	10	66.0	NA
69	23	21	M	Filler	121	6	modify	11	34.0	NA
69	23	21	M	Filler	121	6	the	12	49.0	NA
69	23	21	M	Filler	121	6	seeds	13	84.0	NA
69	23	21	M	Filler	121	6	of	14	100.0	NA
69	23	21	M	Filler	121	6	in	15	68.0	NA
69	23	21	M	Filler	121	6	the	16	183.0	NA
69	23	21	M	Filler	121	6	lab.	17	67.0	NA
69	23	21	M	Question	121	6	NA	NA	1699.0	1
70	23	21	M	Filler	64	4	Because	1	262.0	NA
70	23	21	M	Filler	64	4	a	2	67.0	NA
70	23	21	M	Filler	64	4	fire	3	49.0	NA
70	23	21	M	Filler	64	4	alarm	4	51.0	NA
70	23	21	M	Filler	64	4	interrupted	5	67.0	NA
70	23	21	M	Filler	64	4	the	6	49.0	NA
70	23	21	M	Filler	64	4	exam	7	82.0	NA
70	23	21	M	Filler	64	4	the	8	51.0	NA
70	23	21	M	Filler	64	4	scores	9	67.0	NA
70	23	21	M	Filler	64	4	were	10	66.0	NA
70	23	21	M	Filler	64	4	disqualified.	11	100.0	NA
70	23	21	M	Question	64	4	NA	NA	1333.0	1
71	23	21	M	Filler	125	6	The	1	279.0	NA
71	23	21	M	Filler	125	6	bosses	2	99.0	NA
71	23	21	M	Filler	125	6	and	3	84.0	NA
71	23	21	M	Filler	125	6	secretaries	4	82.0	NA
71	23	21	M	Filler	125	6	took	5	83.0	NA
71	23	21	M	Filler	125	6	a	6	52.0	NA
71	23	21	M	Filler	125	6	long	7	48.0	NA
71	23	21	M	Filler	125	6	lunch	8	52.0	NA
71	23	21	M	Filler	125	6	together	9	83.0	NA
71	23	21	M	Filler	125	6	every	10	66.0	NA
71	23	21	M	Filler	125	6	Friday.	11	67.0	NA
71	23	21	M	Question	125	6	NA	NA	999.0	1
72	23	21	M	Filler	80	5	The	1	279.0	NA
72	23	21	M	Filler	80	5	stepfather	2	67.0	NA
72	23	21	M	Filler	80	5	of	3	84.0	NA
72	23	21	M	Filler	80	5	the	4	65.0	NA
72	23	21	M	Filler	80	5	nun	5	50.0	NA
72	23	21	M	Filler	80	5	with	6	51.0	NA
72	23	21	M	Filler	80	5	a	7	51.0	NA
72	23	21	M	Filler	80	5	long	8	67.0	NA
72	23	21	M	Filler	80	5	white	9	82.0	NA
72	23	21	M	Filler	80	5	beard	10	51.0	NA
72	23	21	M	Filler	80	5	became	11	99.0	NA
72	23	21	M	Filler	80	5	very	12	50.0	NA
72	23	21	M	Filler	80	5	ill.	13	84.0	NA
72	23	21	M	Question	80	5	NA	NA	1133.0	1
73	23	21	M	Filler	51	4	The	1	277.0	NA
73	23	21	M	Filler	51	4	students	2	51.0	NA
73	23	21	M	Filler	51	4	were	3	67.0	NA
73	23	21	M	Filler	51	4	in	4	67.0	NA
73	23	21	M	Filler	51	4	a	5	67.0	NA
73	23	21	M	Filler	51	4	frenzy	6	65.0	NA
73	23	21	M	Filler	51	4	because	7	51.0	NA
73	23	21	M	Filler	51	4	they	8	50.0	NA
73	23	21	M	Filler	51	4	wanted	9	33.0	NA
73	23	21	M	Filler	51	4	tickets	10	66.0	NA
73	23	21	M	Filler	51	4	for	11	51.0	NA
73	23	21	M	Filler	51	4	the	12	81.0	NA
73	23	21	M	Filler	51	4	game	13	85.0	NA
73	23	21	M	Filler	51	4	tonight.	14	82.0	NA
73	23	21	M	Question	51	4	NA	NA	801.0	1
74	23	21	M	swets	18	1	The	1	296.0	NA
74	23	21	M	swets	18	1	nephew	2	51.0	NA
74	23	21	M	swets	18	1	of	3	99.0	NA
74	23	21	M	swets	18	1	the	4	84.0	NA
74	23	21	M	swets	18	1	fisherman	5	65.0	NA
74	23	21	M	swets	18	1	who	6	51.0	NA
74	23	21	M	swets	18	1	drowned	7	50.0	NA
74	23	21	M	swets	18	1	himself	8	65.0	NA
74	23	21	M	swets	18	1	in	9	34.0	NA
74	23	21	M	swets	18	1	the	10	66.0	NA
74	23	21	M	swets	18	1	ocean	11	67.0	NA
74	23	21	M	swets	18	1	didn't	12	217.0	NA
74	23	21	M	swets	18	1	know	13	351.0	NA
74	23	21	M	swets	18	1	about	14	350.0	NA
74	23	21	M	swets	18	1	the	15	133.0	NA
74	23	21	M	swets	18	1	tricky	16	167.0	NA
74	23	21	M	swets	18	1	current.	17	367.0	NA
74	23	21	M	Question	18	1	NA	NA	1533.0	0
75	23	21	M	Filler	128	7	While	1	296.0	NA
75	23	21	M	Filler	128	7	the	2	65.0	NA
75	23	21	M	Filler	128	7	man	3	51.0	NA
75	23	21	M	Filler	128	7	was	4	64.0	NA
75	23	21	M	Filler	128	7	walking	5	51.0	NA
75	23	21	M	Filler	128	7	the	6	84.0	NA
75	23	21	M	Filler	128	7	poodle	7	17.0	NA
75	23	21	M	Filler	128	7	barked	8	67.0	NA
75	23	21	M	Filler	128	7	loudly.	9	98.0	NA
75	23	21	M	Question	128	7	NA	NA	2202.0	1
76	23	21	M	swets	32	3	The	1	295.0	NA
76	23	21	M	swets	32	3	nephew	2	66.0	NA
76	23	21	M	swets	32	3	of	3	68.0	NA
76	23	21	M	swets	32	3	the	4	66.0	NA
76	23	21	M	swets	32	3	duchess	5	50.0	NA
76	23	21	M	swets	32	3	who	6	67.0	NA
76	23	21	M	swets	32	3	looked	7	50.0	NA
76	23	21	M	swets	32	3	at	8	67.0	NA
76	23	21	M	swets	32	3	himself	9	82.0	NA
76	23	21	M	swets	32	3	in	10	51.0	NA
76	23	21	M	swets	32	3	the	11	50.0	NA
76	23	21	M	swets	32	3	mirror	12	66.0	NA
76	23	21	M	swets	32	3	wore	13	67.0	NA
76	23	21	M	swets	32	3	a	14	67.0	NA
76	23	21	M	swets	32	3	blue	15	84.0	NA
76	23	21	M	swets	32	3	shirt.	16	134.0	NA
76	23	21	M	Question	32	3	NA	NA	832.0	1
77	23	21	M	Filler	77	5	Outside	1	296.0	NA
77	23	21	M	Filler	77	5	the	2	66.0	NA
77	23	21	M	Filler	77	5	courthouse	3	66.0	NA
77	23	21	M	Filler	77	5	the	4	51.0	NA
77	23	21	M	Filler	77	5	committee	5	83.0	NA
77	23	21	M	Filler	77	5	awarded	6	134.0	NA
77	23	21	M	Filler	77	5	a	7	166.0	NA
77	23	21	M	Filler	77	5	lifetime	8	83.0	NA
77	23	21	M	Filler	77	5	achievement	9	50.0	NA
77	23	21	M	Filler	77	5	prize	10	35.0	NA
77	23	21	M	Filler	77	5	to	11	50.0	NA
77	23	21	M	Filler	77	5	the	12	82.0	NA
77	23	21	M	Filler	77	5	creator	13	84.0	NA
77	23	21	M	Filler	77	5	of	14	67.0	NA
77	23	21	M	Filler	77	5	the	15	168.0	NA
77	23	21	M	Filler	77	5	sculpture.	16	99.0	NA
77	23	21	M	Question	77	5	NA	NA	1334.0	1
78	23	21	M	Filler	43	4	The	1	278.0	NA
78	23	21	M	Filler	43	4	movie	2	66.0	NA
78	23	21	M	Filler	43	4	director	3	66.0	NA
78	23	21	M	Filler	43	4	refused	4	68.0	NA
78	23	21	M	Filler	43	4	to	5	200.0	NA
78	23	21	M	Filler	43	4	work	6	50.0	NA
78	23	21	M	Filler	43	4	with	7	67.0	NA
78	23	21	M	Filler	43	4	the	8	68.0	NA
78	23	21	M	Filler	43	4	producer	9	66.0	NA
78	23	21	M	Filler	43	4	again	10	49.0	NA
78	23	21	M	Filler	43	4	after	11	50.0	NA
78	23	21	M	Filler	43	4	winning	12	50.0	NA
78	23	21	M	Filler	43	4	the	13	100.0	NA
78	23	21	M	Filler	43	4	grand	14	283.0	NA
78	23	21	M	Filler	43	4	prize.	15	100.0	NA
78	23	21	M	Question	43	4	NA	NA	901.0	1
79	23	21	M	Filler	53	4	The	1	262.0	NA
79	23	21	M	Filler	53	4	clay	2	82.0	NA
79	23	21	M	Filler	53	4	pot	3	69.0	NA
79	23	21	M	Filler	53	4	was	4	49.0	NA
79	23	21	M	Filler	53	4	full	5	100.0	NA
79	23	21	M	Filler	53	4	of	6	300.0	NA
79	23	21	M	Filler	53	4	gold	7	66.0	NA
79	23	21	M	Filler	53	4	coins	8	68.0	NA
79	23	21	M	Filler	53	4	and	9	49.0	NA
79	23	21	M	Filler	53	4	the	10	68.0	NA
79	23	21	M	Filler	53	4	thief	11	65.0	NA
79	23	21	M	Filler	53	4	knew	12	51.0	NA
79	23	21	M	Filler	53	4	he	13	50.0	NA
79	23	21	M	Filler	53	4	had	14	67.0	NA
79	23	21	M	Filler	53	4	finally	15	82.0	NA
79	23	21	M	Filler	53	4	hit	16	52.0	NA
79	23	21	M	Filler	53	4	the	17	65.0	NA
79	23	21	M	Filler	53	4	jackpot.	18	101.0	NA
79	23	21	M	Question	53	4	NA	NA	866.0	1
80	23	21	M	Filler	98	5	The	1	279.0	NA
80	23	21	M	Filler	98	5	husband	2	68.0	NA
80	23	21	M	Filler	98	5	of	3	67.0	NA
80	23	21	M	Filler	98	5	the	4	50.0	NA
80	23	21	M	Filler	98	5	bestselling	5	99.0	NA
80	23	21	M	Filler	98	5	novelist	6	35.0	NA
80	23	21	M	Filler	98	5	was	7	48.0	NA
80	23	21	M	Filler	98	5	into	8	68.0	NA
80	23	21	M	Filler	98	5	collecting	9	133.0	NA
80	23	21	M	Filler	98	5	antiques.	10	633.0	NA
80	23	21	M	Question	98	5	NA	NA	1601.0	1
81	23	21	M	Filler	74	5	My	1	412.0	NA
81	23	21	M	Filler	74	5	former	2	115.0	NA
81	23	21	M	Filler	74	5	girlfriend	3	118.0	NA
81	23	21	M	Filler	74	5	criticized	4	100.0	NA
81	23	21	M	Filler	74	5	the	5	82.0	NA
81	23	21	M	Filler	74	5	author's	6	68.0	NA
81	23	21	M	Filler	74	5	agent	7	83.0	NA
81	23	21	M	Filler	74	5	because	8	99.0	NA
81	23	21	M	Filler	74	5	he	9	50.0	NA
81	23	21	M	Filler	74	5	had	10	68.0	NA
81	23	21	M	Filler	74	5	failed	11	83.0	NA
81	23	21	M	Filler	74	5	to	12	84.0	NA
81	23	21	M	Filler	74	5	meet	13	249.0	NA
81	23	21	M	Filler	74	5	a	14	119.0	NA
81	23	21	M	Filler	74	5	deadline.	15	83.0	NA
81	23	21	M	Question	74	5	NA	NA	3001.0	1
82	23	21	M	swets	7	2	The	1	62.0	NA
82	23	21	M	swets	7	2	nephew	2	301.0	NA
82	23	21	M	swets	7	2	of	3	82.0	NA
82	23	21	M	swets	7	2	the	4	17.0	NA
82	23	21	M	swets	7	2	waitress	5	100.0	NA
82	23	21	M	swets	7	2	who	6	84.0	NA
82	23	21	M	swets	7	2	hurt	7	182.0	NA
82	23	21	M	swets	7	2	herself	8	100.0	NA
82	23	21	M	swets	7	2	on	9	66.0	NA
82	23	21	M	swets	7	2	the	10	52.0	NA
82	23	21	M	swets	7	2	bicycle	11	66.0	NA
82	23	21	M	swets	7	2	was	12	67.0	NA
82	23	21	M	swets	7	2	angry	13	82.0	NA
82	23	21	M	swets	7	2	about	14	100.0	NA
82	23	21	M	swets	7	2	the	15	67.0	NA
82	23	21	M	swets	7	2	incident.	16	84.0	NA
82	23	21	M	Question	7	2	NA	NA	1000.0	1
83	23	21	M	Filler	55	4	The	1	263.0	NA
83	23	21	M	Filler	55	4	people	2	82.0	NA
83	23	21	M	Filler	55	4	certainly	3	67.0	NA
83	23	21	M	Filler	55	4	admired	4	66.0	NA
83	23	21	M	Filler	55	4	the	5	51.0	NA
83	23	21	M	Filler	55	4	wife	6	67.0	NA
83	23	21	M	Filler	55	4	of	7	65.0	NA
83	23	21	M	Filler	55	4	the	8	52.0	NA
83	23	21	M	Filler	55	4	janitor	9	65.0	NA
83	23	21	M	Filler	55	4	because	10	101.0	NA
83	23	21	M	Filler	55	4	she	11	51.0	NA
83	23	21	M	Filler	55	4	educated	12	99.0	NA
83	23	21	M	Filler	55	4	herself	13	68.0	NA
83	23	21	M	Filler	55	4	at	14	65.0	NA
83	23	21	M	Filler	55	4	night.	15	51.0	NA
83	23	21	M	Question	55	4	NA	NA	1233.0	1
84	23	21	M	Filler	48	4	The	1	296.0	NA
84	23	21	M	Filler	48	4	police	2	66.0	NA
84	23	21	M	Filler	48	4	arrested	3	67.0	NA
84	23	21	M	Filler	48	4	the	4	67.0	NA
84	23	21	M	Filler	48	4	sister	5	66.0	NA
84	23	21	M	Filler	48	4	of	6	67.0	NA
84	23	21	M	Filler	48	4	the	7	50.0	NA
84	23	21	M	Filler	48	4	handyman	8	50.0	NA
84	23	21	M	Filler	48	4	after	9	66.0	NA
84	23	21	M	Filler	48	4	she	10	50.0	NA
84	23	21	M	Filler	48	4	recently	11	50.0	NA
84	23	21	M	Filler	48	4	gave	12	101.0	NA
84	23	21	M	Filler	48	4	birth	13	83.0	NA
84	23	21	M	Filler	48	4	to	14	51.0	NA
84	23	21	M	Filler	48	4	twins.	15	83.0	NA
84	23	21	M	Question	48	4	NA	NA	2033.0	1
85	23	21	M	swets	9	1	The	1	277.0	NA
85	23	21	M	swets	9	1	sister	2	84.0	NA
85	23	21	M	swets	9	1	of	3	83.0	NA
85	23	21	M	swets	9	1	the	4	84.0	NA
85	23	21	M	swets	9	1	schoolgirl	5	67.0	NA
85	23	21	M	swets	9	1	who	6	50.0	NA
85	23	21	M	swets	9	1	burned	7	98.0	NA
85	23	21	M	swets	9	1	herself	8	34.0	NA
85	23	21	M	swets	9	1	the	9	51.0	NA
85	23	21	M	swets	9	1	other	10	50.0	NA
85	23	21	M	swets	9	1	day	11	49.0	NA
85	23	21	M	swets	9	1	was	12	67.0	NA
85	23	21	M	swets	9	1	usually	13	200.0	NA
85	23	21	M	swets	9	1	very	14	83.0	NA
85	23	21	M	swets	9	1	careful.	15	135.0	NA
85	23	21	M	Question	9	1	NA	NA	1332.0	1
86	23	21	M	Filler	84	5	While	1	196.0	NA
86	23	21	M	Filler	84	5	talking	2	115.0	NA
86	23	21	M	Filler	84	5	to	3	67.0	NA
86	23	21	M	Filler	84	5	his	4	67.0	NA
86	23	21	M	Filler	84	5	sister	5	82.0	NA
86	23	21	M	Filler	84	5	the	6	68.0	NA
86	23	21	M	Filler	84	5	bishop	7	67.0	NA
86	23	21	M	Filler	84	5	with	8	49.0	NA
86	23	21	M	Filler	84	5	the	9	51.0	NA
86	23	21	M	Filler	84	5	funny	10	50.0	NA
86	23	21	M	Filler	84	5	eyebrows	11	67.0	NA
86	23	21	M	Filler	84	5	advocated	12	51.0	NA
86	23	21	M	Filler	84	5	strange	13	82.0	NA
86	23	21	M	Filler	84	5	beliefs.	14	67.0	NA
86	23	21	M	Question	84	5	NA	NA	4702.0	1
87	23	21	M	swets	23	3	The	1	213.0	NA
87	23	21	M	swets	23	3	father	2	81.0	NA
87	23	21	M	swets	23	3	of	3	68.0	NA
87	23	21	M	swets	23	3	the	4	84.0	NA
87	23	21	M	swets	23	3	ballerina	5	66.0	NA
87	23	21	M	swets	23	3	who	6	67.0	NA
87	23	21	M	swets	23	3	found	7	66.0	NA
87	23	21	M	swets	23	3	himself	8	49.0	NA
87	23	21	M	swets	23	3	in	9	52.0	NA
87	23	21	M	swets	23	3	a	10	50.0	NA
87	23	21	M	swets	23	3	lot	11	132.0	NA
87	23	21	M	swets	23	3	of	12	68.0	NA
87	23	21	M	swets	23	3	trouble	13	67.0	NA
87	23	21	M	swets	23	3	phoned	14	66.0	NA
87	23	21	M	swets	23	3	the	15	84.0	NA
87	23	21	M	swets	23	3	police.	16	65.0	NA
87	23	21	M	Question	23	3	NA	NA	1135.0	1
88	23	21	M	Filler	102	5	The	1	278.0	NA
88	23	21	M	Filler	102	5	old	2	66.0	NA
88	23	21	M	Filler	102	5	man	3	67.0	NA
88	23	21	M	Filler	102	5	appeared	4	50.0	NA
88	23	21	M	Filler	102	5	to	5	67.0	NA
88	23	21	M	Filler	102	5	be	6	49.0	NA
88	23	21	M	Filler	102	5	upset	7	67.0	NA
88	23	21	M	Filler	102	5	by	8	32.0	NA
88	23	21	M	Filler	102	5	the	9	51.0	NA
88	23	21	M	Filler	102	5	teenager's	10	66.0	NA
88	23	21	M	Filler	102	5	ignorant	11	49.0	NA
88	23	21	M	Filler	102	5	remark.	12	101.0	NA
88	23	21	M	Question	102	5	NA	NA	1235.0	1
89	23	21	M	Filler	108	5	The	1	62.0	NA
89	23	21	M	Filler	108	5	museum	2	100.0	NA
89	23	21	M	Filler	108	5	wing	3	82.0	NA
89	23	21	M	Filler	108	5	which	4	67.0	NA
89	23	21	M	Filler	108	5	housed	5	66.0	NA
89	23	21	M	Filler	108	5	all	6	51.0	NA
89	23	21	M	Filler	108	5	the	7	66.0	NA
89	23	21	M	Filler	108	5	Picasso	8	133.0	NA
89	23	21	M	Filler	108	5	paintings	9	50.0	NA
89	23	21	M	Filler	108	5	was	10	51.0	NA
89	23	21	M	Filler	108	5	very	11	100.0	NA
89	23	21	M	Filler	108	5	crowded.	12	100.0	NA
89	23	21	M	Question	108	5	NA	NA	933.0	1
90	23	21	M	Filler	91	5	The	1	178.0	NA
90	23	21	M	Filler	91	5	workman	2	150.0	NA
90	23	21	M	Filler	91	5	dropped	3	66.0	NA
90	23	21	M	Filler	91	5	the	4	52.0	NA
90	23	21	M	Filler	91	5	assistant	5	99.0	NA
90	23	21	M	Filler	91	5	who	6	34.0	NA
90	23	21	M	Filler	91	5	complained	7	82.0	NA
90	23	21	M	Filler	91	5	bitterly	8	535.0	NA
90	23	21	M	Filler	91	5	onto	9	99.0	NA
90	23	21	M	Filler	91	5	a	10	50.0	NA
90	23	21	M	Filler	91	5	lower	11	118.0	NA
90	23	21	M	Filler	91	5	floor.	12	165.0	NA
90	23	21	M	Question	91	5	NA	NA	1735.0	1
91	23	21	M	swets	16	2	The	1	229.0	NA
91	23	21	M	swets	16	2	widow	2	65.0	NA
91	23	21	M	swets	16	2	of	3	68.0	NA
91	23	21	M	swets	16	2	the	4	50.0	NA
91	23	21	M	swets	16	2	general	5	67.0	NA
91	23	21	M	swets	16	2	who	6	67.0	NA
91	23	21	M	swets	16	2	sacrificed	7	66.0	NA
91	23	21	M	swets	16	2	himself	8	51.0	NA
91	23	21	M	swets	16	2	for	9	67.0	NA
91	23	21	M	swets	16	2	the	10	82.0	NA
91	23	21	M	swets	16	2	cause	11	134.0	NA
91	23	21	M	swets	16	2	was	12	101.0	NA
91	23	21	M	swets	16	2	the	13	65.0	NA
91	23	21	M	swets	16	2	subject	14	68.0	NA
91	23	21	M	swets	16	2	of	15	100.0	NA
91	23	21	M	swets	16	2	the	16	267.0	NA
91	23	21	M	swets	16	2	biography.	17	133.0	NA
91	23	21	M	Question	16	2	NA	NA	966.0	1
92	23	21	M	Filler	49	4	The	1	312.0	NA
92	23	21	M	Filler	49	4	construction	2	67.0	NA
92	23	21	M	Filler	49	4	worker	3	116.0	NA
92	23	21	M	Filler	49	4	sued	4	99.0	NA
92	23	21	M	Filler	49	4	the	5	84.0	NA
92	23	21	M	Filler	49	4	son	6	51.0	NA
92	23	21	M	Filler	49	4	of	7	50.0	NA
92	23	21	M	Filler	49	4	that	8	50.0	NA
92	23	21	M	Filler	49	4	greedy	9	51.0	NA
92	23	21	M	Filler	49	4	banker.	10	66.0	NA
92	23	21	M	Question	49	4	NA	NA	2768.0	1
93	23	21	M	Filler	133	7	While	1	296.0	NA
93	23	21	M	Filler	133	7	the	2	33.0	NA
93	23	21	M	Filler	133	7	lawyers	3	67.0	NA
93	23	21	M	Filler	133	7	fought	4	67.0	NA
93	23	21	M	Filler	133	7	the	5	50.0	NA
93	23	21	M	Filler	133	7	ruling	6	65.0	NA
93	23	21	M	Filler	133	7	the	7	34.0	NA
93	23	21	M	Filler	133	7	judge	8	66.0	NA
93	23	21	M	Filler	133	7	announced	9	68.0	NA
93	23	21	M	Filler	133	7	the	10	99.0	NA
93	23	21	M	Filler	133	7	decision.	11	156.0	NA
93	23	21	M	Question	133	7	NA	NA	1528.0	1
94	23	21	M	swets	3	1	The	1	294.0	NA
94	23	21	M	swets	3	1	partner	2	85.0	NA
94	23	21	M	swets	3	1	of	3	66.0	NA
94	23	21	M	swets	3	1	the	4	68.0	NA
94	23	21	M	swets	3	1	salesman	5	66.0	NA
94	23	21	M	swets	3	1	who	6	65.0	NA
94	23	21	M	swets	3	1	amused	7	52.0	NA
94	23	21	M	swets	3	1	himself	8	65.0	NA
94	23	21	M	swets	3	1	quite	9	67.0	NA
94	23	21	M	swets	3	1	a	10	50.0	NA
94	23	21	M	swets	3	1	bit	11	67.0	NA
94	23	21	M	swets	3	1	was	12	84.0	NA
94	23	21	M	swets	3	1	writing	13	116.0	NA
94	23	21	M	swets	3	1	a	14	84.0	NA
94	23	21	M	swets	3	1	letter	15	65.0	NA
94	23	21	M	swets	3	1	to	16	101.0	NA
94	23	21	M	swets	3	1	the	17	100.0	NA
94	23	21	M	swets	3	1	editor.	18	100.0	NA
94	23	21	M	Question	3	1	NA	NA	1067.0	1
95	23	21	M	Filler	40	4	The	1	145.0	NA
95	23	21	M	Filler	40	4	boy's	2	100.0	NA
95	23	21	M	Filler	40	4	mother	3	66.0	NA
95	23	21	M	Filler	40	4	was	4	84.0	NA
95	23	21	M	Filler	40	4	very	5	49.0	NA
95	23	21	M	Filler	40	4	happy	6	52.0	NA
95	23	21	M	Filler	40	4	to	7	49.0	NA
95	23	21	M	Filler	40	4	see	8	67.0	NA
95	23	21	M	Filler	40	4	good	9	49.0	NA
95	23	21	M	Filler	40	4	grades	10	51.0	NA
95	23	21	M	Filler	40	4	on	11	33.0	NA
95	23	21	M	Filler	40	4	his	12	34.0	NA
95	23	21	M	Filler	40	4	report	13	66.0	NA
95	23	21	M	Filler	40	4	card.	14	66.0	NA
95	23	21	M	Question	40	4	NA	NA	1567.0	1
96	23	21	M	Filler	105	5	The	1	278.0	NA
96	23	21	M	Filler	105	5	actors	2	66.0	NA
96	23	21	M	Filler	105	5	rehearsed	3	84.0	NA
96	23	21	M	Filler	105	5	the	4	50.0	NA
96	23	21	M	Filler	105	5	play	5	50.0	NA
96	23	21	M	Filler	105	5	so	6	52.0	NA
96	23	21	M	Filler	105	5	much	7	64.0	NA
96	23	21	M	Filler	105	5	that	8	52.0	NA
96	23	21	M	Filler	105	5	they	9	82.0	NA
96	23	21	M	Filler	105	5	became	10	67.0	NA
96	23	21	M	Filler	105	5	bored	11	51.0	NA
96	23	21	M	Filler	105	5	with	12	50.0	NA
96	23	21	M	Filler	105	5	it.	13	50.0	NA
96	23	21	M	Question	105	5	NA	NA	2166.0	1
97	23	21	M	Filler	112	6	As	1	263.0	NA
97	23	21	M	Filler	112	6	the	2	50.0	NA
97	23	21	M	Filler	112	6	dog	3	82.0	NA
97	23	21	M	Filler	112	6	was	4	66.0	NA
97	23	21	M	Filler	112	6	calming	5	51.0	NA
97	23	21	M	Filler	112	6	down	6	49.0	NA
97	23	21	M	Filler	112	6	the	7	52.0	NA
97	23	21	M	Filler	112	6	puppy	8	66.0	NA
97	23	21	M	Filler	112	6	slept	9	65.0	NA
97	23	21	M	Filler	112	6	in	10	52.0	NA
97	23	21	M	Filler	112	6	the	11	50.0	NA
97	23	21	M	Filler	112	6	cage.	12	67.0	NA
97	23	21	M	Question	112	6	NA	NA	999.0	1
98	23	21	M	swets	17	3	The	1	179.0	NA
98	23	21	M	swets	17	3	bank	2	49.0	NA
98	23	21	M	swets	17	3	manager	3	66.0	NA
98	23	21	M	swets	17	3	of	4	51.0	NA
98	23	21	M	swets	17	3	the	5	50.0	NA
98	23	21	M	swets	17	3	heiress	6	50.0	NA
98	23	21	M	swets	17	3	who	7	50.0	NA
98	23	21	M	swets	17	3	bankrupted	8	66.0	NA
98	23	21	M	swets	17	3	himself	9	50.0	NA
98	23	21	M	swets	17	3	last	10	66.0	NA
98	23	21	M	swets	17	3	year	11	84.0	NA
98	23	21	M	swets	17	3	still	12	183.0	NA
98	23	21	M	swets	17	3	made	13	383.0	NA
98	23	21	M	swets	17	3	risky	14	269.0	NA
98	23	21	M	swets	17	3	investments.	15	317.0	NA
98	23	21	M	Question	17	3	NA	NA	1065.0	1
99	23	21	M	Filler	39	4	The	1	295.0	NA
99	23	21	M	Filler	39	4	overweight	2	84.0	NA
99	23	21	M	Filler	39	4	aunt	3	98.0	NA
99	23	21	M	Filler	39	4	decided	4	35.0	NA
99	23	21	M	Filler	39	4	to	5	67.0	NA
99	23	21	M	Filler	39	4	make	6	82.0	NA
99	23	21	M	Filler	39	4	cookies	7	50.0	NA
99	23	21	M	Filler	39	4	and	8	50.0	NA
99	23	21	M	Filler	39	4	cupcakes	9	68.0	NA
99	23	21	M	Filler	39	4	for	10	34.0	NA
99	23	21	M	Filler	39	4	the	11	66.0	NA
99	23	21	M	Filler	39	4	dinner	12	67.0	NA
99	23	21	M	Filler	39	4	party.	13	118.0	NA
99	23	21	M	Question	39	4	NA	NA	898.0	1
100	23	21	M	swets	4	2	The	1	262.0	NA
100	23	21	M	swets	4	2	father	2	83.0	NA
100	23	21	M	swets	4	2	of	3	67.0	NA
100	23	21	M	swets	4	2	the	4	50.0	NA
100	23	21	M	swets	4	2	bride	5	66.0	NA
100	23	21	M	swets	4	2	who	6	67.0	NA
100	23	21	M	swets	4	2	embarrassed	7	67.0	NA
100	23	21	M	swets	4	2	herself	8	33.0	NA
100	23	21	M	swets	4	2	at	9	67.0	NA
100	23	21	M	swets	4	2	the	10	51.0	NA
100	23	21	M	swets	4	2	reception	11	50.0	NA
100	23	21	M	swets	4	2	was	12	50.0	NA
100	23	21	M	swets	4	2	complaining	13	50.0	NA
100	23	21	M	swets	4	2	to	14	83.0	NA
100	23	21	M	swets	4	2	the	15	68.0	NA
100	23	21	M	swets	4	2	priest.	16	98.0	NA
100	23	21	M	Question	4	2	NA	NA	934.0	1
101	23	21	M	Filler	61	4	The	1	61.0	NA
101	23	21	M	Filler	61	4	lemon	2	569.0	NA
101	23	21	M	Filler	61	4	squirted	3	98.0	NA
101	23	21	M	Filler	61	4	into	4	67.0	NA
101	23	21	M	Filler	61	4	the	5	67.0	NA
101	23	21	M	Filler	61	4	debutante's	6	67.0	NA
101	23	21	M	Filler	61	4	eye	7	66.0	NA
101	23	21	M	Filler	61	4	as	8	50.0	NA
101	23	21	M	Filler	61	4	she	9	301.0	NA
101	23	21	M	Filler	61	4	tried	10	83.0	NA
101	23	21	M	Filler	61	4	to	11	68.0	NA
101	23	21	M	Filler	61	4	impress	12	49.0	NA
101	23	21	M	Filler	61	4	her	13	150.0	NA
101	23	21	M	Filler	61	4	mother's	14	100.0	NA
101	23	21	M	Filler	61	4	society	15	300.0	NA
101	23	21	M	Filler	61	4	friends.	16	116.0	NA
101	23	21	M	Question	61	4	NA	NA	900.0	1
102	23	21	M	Filler	144	7	The	1	78.0	NA
102	23	21	M	Filler	144	7	apple	2	83.0	NA
102	23	21	M	Filler	144	7	and	3	67.0	NA
102	23	21	M	Filler	144	7	potato	4	66.0	NA
102	23	21	M	Filler	144	7	went	5	51.0	NA
102	23	21	M	Filler	144	7	rotten	6	49.0	NA
102	23	21	M	Filler	144	7	after	7	34.0	NA
102	23	21	M	Filler	144	7	a	8	67.0	NA
102	23	21	M	Filler	144	7	week.	9	50.0	NA
102	23	21	M	Question	144	7	NA	NA	932.0	1
103	23	21	M	Filler	70	4	The	1	12.0	NA
103	23	21	M	Filler	70	4	warden	2	66.0	NA
103	23	21	M	Filler	70	4	was	3	83.0	NA
103	23	21	M	Filler	70	4	dissatisfied	4	84.0	NA
103	23	21	M	Filler	70	4	with	5	35.0	NA
103	23	21	M	Filler	70	4	the	6	65.0	NA
103	23	21	M	Filler	70	4	decision	7	35.0	NA
103	23	21	M	Filler	70	4	of	8	49.0	NA
103	23	21	M	Filler	70	4	the	9	34.0	NA
103	23	21	M	Filler	70	4	parole	10	51.0	NA
103	23	21	M	Filler	70	4	committee	11	66.0	NA
103	23	21	M	Filler	70	4	to	12	84.0	NA
103	23	21	M	Filler	70	4	pardon	13	131.0	NA
103	23	21	M	Filler	70	4	the	14	102.0	NA
103	23	21	M	Filler	70	4	prisoner.	15	82.0	NA
103	23	21	M	Question	70	4	NA	NA	1500.0	1
104	23	21	M	swets	14	3	The	1	294.0	NA
104	23	21	M	swets	14	3	father	2	52.0	NA
104	23	21	M	swets	14	3	of	3	66.0	NA
104	23	21	M	swets	14	3	the	4	67.0	NA
104	23	21	M	swets	14	3	nurse	5	67.0	NA
104	23	21	M	swets	14	3	who	6	33.0	NA
104	23	21	M	swets	14	3	injured	7	66.0	NA
104	23	21	M	swets	14	3	himself	8	19.0	NA
104	23	21	M	swets	14	3	last	9	81.0	NA
104	23	21	M	swets	14	3	summer	10	69.0	NA
104	23	21	M	swets	14	3	had	11	82.0	NA
104	23	21	M	swets	14	3	lived	12	68.0	NA
104	23	21	M	swets	14	3	in	13	81.0	NA
104	23	21	M	swets	14	3	Wales.	14	35.0	NA
104	23	21	M	Question	14	3	NA	NA	967.0	1
105	23	21	M	Filler	130	7	While	1	262.0	NA
105	23	21	M	Filler	130	7	Margo	2	67.0	NA
105	23	21	M	Filler	130	7	bathed	3	66.0	NA
105	23	21	M	Filler	130	7	the	4	51.0	NA
105	23	21	M	Filler	130	7	dog	5	49.0	NA
105	23	21	M	Filler	130	7	barked	6	67.0	NA
105	23	21	M	Filler	130	7	in	7	49.0	NA
105	23	21	M	Filler	130	7	the	8	34.0	NA
105	23	21	M	Filler	130	7	yard.	9	34.0	NA
105	23	21	M	Question	130	7	NA	NA	2266.0	1
106	23	21	M	swets	2	3	The	1	279.0	NA
106	23	21	M	swets	2	3	sister	2	67.0	NA
106	23	21	M	swets	2	3	of	3	66.0	NA
106	23	21	M	swets	2	3	the	4	51.0	NA
106	23	21	M	swets	2	3	fireman	5	66.0	NA
106	23	21	M	swets	2	3	who	6	50.0	NA
106	23	21	M	swets	2	3	criticized	7	66.0	NA
106	23	21	M	swets	2	3	herself	8	51.0	NA
106	23	21	M	swets	2	3	far	9	49.0	NA
106	23	21	M	swets	2	3	too	10	67.0	NA
106	23	21	M	swets	2	3	often	11	51.0	NA
106	23	21	M	swets	2	3	was	12	50.0	NA
106	23	21	M	swets	2	3	painting	13	66.0	NA
106	23	21	M	swets	2	3	the	14	33.0	NA
106	23	21	M	swets	2	3	bedroom.	15	66.0	NA
106	23	21	M	Question	2	3	NA	NA	966.0	1
107	23	21	M	Filler	96	5	The	1	177.0	NA
107	23	21	M	Filler	96	5	evil	2	82.0	NA
107	23	21	M	Filler	96	5	man	3	68.0	NA
107	23	21	M	Filler	96	5	watched	4	66.0	NA
107	23	21	M	Filler	96	5	the	5	50.0	NA
107	23	21	M	Filler	96	5	doorway	6	50.0	NA
107	23	21	M	Filler	96	5	of	7	68.0	NA
107	23	21	M	Filler	96	5	the	8	50.0	NA
107	23	21	M	Filler	96	5	bar	9	66.0	NA
107	23	21	M	Filler	96	5	every	10	49.0	NA
107	23	21	M	Filler	96	5	Friday	11	34.0	NA
107	23	21	M	Filler	96	5	night.	12	82.0	NA
107	23	21	M	Question	96	5	NA	NA	2469.0	1
108	23	21	M	Filler	67	4	The	1	45.0	NA
108	23	21	M	Filler	67	4	restaurant	2	133.0	NA
108	23	21	M	Filler	67	4	was	3	83.0	NA
108	23	21	M	Filler	67	4	famous	4	66.0	NA
108	23	21	M	Filler	67	4	for	5	50.0	NA
108	23	21	M	Filler	67	4	its	6	35.0	NA
108	23	21	M	Filler	67	4	French	7	65.0	NA
108	23	21	M	Filler	67	4	pastries	8	50.0	NA
108	23	21	M	Filler	67	4	and	9	51.0	NA
108	23	21	M	Filler	67	4	fine	10	50.0	NA
108	23	21	M	Filler	67	4	wines.	11	50.0	NA
108	23	21	M	Question	67	4	NA	NA	1466.0	1
109	23	21	M	Filler	106	5	On	1	127.0	NA
109	23	21	M	Filler	106	5	the	2	84.0	NA
109	23	21	M	Filler	106	5	last	3	66.0	NA
109	23	21	M	Filler	106	5	night	4	50.0	NA
109	23	21	M	Filler	106	5	of	5	66.0	NA
109	23	21	M	Filler	106	5	summer	6	35.0	NA
109	23	21	M	Filler	106	5	camp	7	49.0	NA
109	23	21	M	Filler	106	5	the	8	51.0	NA
109	23	21	M	Filler	106	5	counselors	9	67.0	NA
109	23	21	M	Filler	106	5	let	10	66.0	NA
109	23	21	M	Filler	106	5	the	11	83.0	NA
109	23	21	M	Filler	106	5	children	12	133.0	NA
109	23	21	M	Filler	106	5	stay	13	83.0	NA
109	23	21	M	Filler	106	5	up	14	68.0	NA
109	23	21	M	Filler	106	5	until	15	66.0	NA
109	23	21	M	Filler	106	5	midnight.	16	66.0	NA
109	23	21	M	Question	106	5	NA	NA	2135.0	1
110	23	21	M	swets	36	1	The	1	28.0	NA
110	23	21	M	swets	36	1	daughter	2	67.0	NA
110	23	21	M	swets	36	1	of	3	83.0	NA
110	23	21	M	swets	36	1	the	4	67.0	NA
110	23	21	M	swets	36	1	saleswoman	5	83.0	NA
110	23	21	M	swets	36	1	who	6	35.0	NA
110	23	21	M	swets	36	1	talked	7	65.0	NA
110	23	21	M	swets	36	1	to	8	50.0	NA
110	23	21	M	swets	36	1	herself	9	67.0	NA
110	23	21	M	swets	36	1	all	10	116.0	NA
110	23	21	M	swets	36	1	the	11	85.0	NA
110	23	21	M	swets	36	1	time	12	65.0	NA
110	23	21	M	swets	36	1	walked	13	101.0	NA
110	23	21	M	swets	36	1	into	14	67.0	NA
110	23	21	M	swets	36	1	the	15	83.0	NA
110	23	21	M	swets	36	1	room.	16	66.0	NA
110	23	21	M	Question	36	1	NA	NA	1401.0	1
111	23	21	M	Filler	136	7	While	1	162.0	NA
111	23	21	M	Filler	136	7	Mark	2	99.0	NA
111	23	21	M	Filler	136	7	and	3	67.0	NA
111	23	21	M	Filler	136	7	Jenny	4	67.0	NA
111	23	21	M	Filler	136	7	were	5	34.0	NA
111	23	21	M	Filler	136	7	cuddling	6	99.0	NA
111	23	21	M	Filler	136	7	the	7	34.0	NA
111	23	21	M	Filler	136	7	older	8	50.0	NA
111	23	21	M	Filler	136	7	dogs	9	68.0	NA
111	23	21	M	Filler	136	7	the	10	50.0	NA
111	23	21	M	Filler	136	7	puppies	11	66.0	NA
111	23	21	M	Filler	136	7	nipped	12	66.0	NA
111	23	21	M	Filler	136	7	at	13	100.0	NA
111	23	21	M	Filler	136	7	their	14	384.0	NA
111	23	21	M	Filler	136	7	feet.	15	51.0	NA
111	23	21	M	Question	136	7	NA	NA	1633.0	1
112	23	21	M	swets	6	1	The	1	277.0	NA
112	23	21	M	swets	6	1	brother	2	52.0	NA
112	23	21	M	swets	6	1	of	3	83.0	NA
112	23	21	M	swets	6	1	the	4	66.0	NA
112	23	21	M	swets	6	1	mayor	5	50.0	NA
112	23	21	M	swets	6	1	who	6	51.0	NA
112	23	21	M	swets	6	1	complimented	7	66.0	NA
112	23	21	M	swets	6	1	himself	8	50.0	NA
112	23	21	M	swets	6	1	constantly	9	34.0	NA
112	23	21	M	swets	6	1	was	10	83.0	NA
112	23	21	M	swets	6	1	bothered	11	183.0	NA
112	23	21	M	swets	6	1	by	12	83.0	NA
112	23	21	M	swets	6	1	the	13	83.0	NA
112	23	21	M	swets	6	1	reporter.	14	201.0	NA
112	23	21	M	Question	6	1	NA	NA	1284.0	1
113	23	21	M	Filler	131	7	While	1	195.0	NA
113	23	21	M	Filler	131	7	Jamie	2	133.0	NA
113	23	21	M	Filler	131	7	dried	3	51.0	NA
113	23	21	M	Filler	131	7	off	4	50.0	NA
113	23	21	M	Filler	131	7	the	5	66.0	NA
113	23	21	M	Filler	131	7	table	6	67.0	NA
113	23	21	M	Filler	131	7	his	7	66.0	NA
113	23	21	M	Filler	131	7	sunglasses	8	66.0	NA
113	23	21	M	Filler	131	7	disappeared.	9	35.0	NA
113	23	21	M	Question	131	7	NA	NA	2566.0	1
114	23	21	M	Filler	120	6	Sarah	1	127.0	NA
114	23	21	M	Filler	120	6	won't	2	68.0	NA
114	23	21	M	Filler	120	6	reveal	3	66.0	NA
114	23	21	M	Filler	120	6	which	4	67.0	NA
114	23	21	M	Filler	120	6	race	5	34.0	NA
114	23	21	M	Filler	120	6	she	6	50.0	NA
114	23	21	M	Filler	120	6	won	7	50.0	NA
114	23	21	M	Filler	120	6	without	8	67.0	NA
114	23	21	M	Filler	120	6	entering	9	66.0	NA
114	23	21	M	Filler	120	6	the	10	300.0	NA
114	23	21	M	Filler	120	6	competition	11	67.0	NA
114	23	21	M	Filler	120	6	for	12	116.0	NA
114	23	21	M	Filler	120	6	officially.	13	350.0	NA
114	23	21	M	Question	120	6	NA	NA	2969.0	1
115	23	21	M	swets	13	2	The	1	277.0	NA
115	23	21	M	swets	13	2	great-aunt	2	68.0	NA
115	23	21	M	swets	13	2	of	3	83.0	NA
115	23	21	M	swets	13	2	the	4	83.0	NA
115	23	21	M	swets	13	2	policeman	5	84.0	NA
115	23	21	M	swets	13	2	who	6	66.0	NA
115	23	21	M	swets	13	2	treated	7	34.0	NA
115	23	21	M	swets	13	2	himself	8	66.0	NA
115	23	21	M	swets	13	2	after	9	33.0	NA
115	23	21	M	swets	13	2	the	10	85.0	NA
115	23	21	M	swets	13	2	accident	11	67.0	NA
115	23	21	M	swets	13	2	was	12	82.0	NA
115	23	21	M	swets	13	2	watching	13	52.0	NA
115	23	21	M	swets	13	2	the	14	82.0	NA
115	23	21	M	swets	13	2	news.	15	85.0	NA
115	23	21	M	Question	13	2	NA	NA	998.0	1
116	23	21	M	Filler	99	5	The	1	146.0	NA
116	23	21	M	Filler	99	5	daring	2	83.0	NA
116	23	21	M	Filler	99	5	photographer	3	82.0	NA
116	23	21	M	Filler	99	5	captured	4	67.0	NA
116	23	21	M	Filler	99	5	the	5	33.0	NA
116	23	21	M	Filler	99	5	image	6	35.0	NA
116	23	21	M	Filler	99	5	of	7	66.0	NA
116	23	21	M	Filler	99	5	the	8	84.0	NA
116	23	21	M	Filler	99	5	destruction	9	68.0	NA
116	23	21	M	Filler	99	5	as	10	65.0	NA
116	23	21	M	Filler	99	5	it	11	50.0	NA
116	23	21	M	Filler	99	5	devastated	12	116.0	NA
116	23	21	M	Filler	99	5	the	13	84.0	NA
116	23	21	M	Filler	99	5	village.	14	150.0	NA
116	23	21	M	Question	99	5	NA	NA	2001.0	1
117	23	21	M	swets	26	3	The	1	78.0	NA
117	23	21	M	swets	26	3	grand-niece	2	100.0	NA
117	23	21	M	swets	26	3	of	3	52.0	NA
117	23	21	M	swets	26	3	the	4	51.0	NA
117	23	21	M	swets	26	3	admiral	5	64.0	NA
117	23	21	M	swets	26	3	who	6	35.0	NA
117	23	21	M	swets	26	3	wrote	7	50.0	NA
117	23	21	M	swets	26	3	herself	8	66.0	NA
117	23	21	M	swets	26	3	a	9	35.0	NA
117	23	21	M	swets	26	3	note	10	49.0	NA
117	23	21	M	swets	26	3	admired	11	83.0	NA
117	23	21	M	swets	26	3	sailors	12	51.0	NA
117	23	21	M	swets	26	3	very	13	82.0	NA
117	23	21	M	swets	26	3	much.	14	100.0	NA
117	23	21	M	Question	26	3	NA	NA	1100.0	1
118	23	21	M	Filler	78	5	The	1	262.0	NA
118	23	21	M	Filler	78	5	customer	2	66.0	NA
118	23	21	M	Filler	78	5	complimented	3	84.0	NA
118	23	21	M	Filler	78	5	the	4	34.0	NA
118	23	21	M	Filler	78	5	store	5	67.0	NA
118	23	21	M	Filler	78	5	keeper	6	67.0	NA
118	23	21	M	Filler	78	5	with	7	67.0	NA
118	23	21	M	Filler	78	5	the	8	98.0	NA
118	23	21	M	Filler	78	5	new	9	100.0	NA
118	23	21	M	Filler	78	5	stock.	10	84.0	NA
118	23	21	M	Question	78	5	NA	NA	2401.0	1
119	23	21	M	Filler	107	5	The	1	144.0	NA
119	23	21	M	Filler	107	5	citizens	2	101.0	NA
119	23	21	M	Filler	107	5	were	3	67.0	NA
119	23	21	M	Filler	107	5	dissatisfied	4	67.0	NA
119	23	21	M	Filler	107	5	with	5	49.0	NA
119	23	21	M	Filler	107	5	the	6	66.0	NA
119	23	21	M	Filler	107	5	mayor	7	51.0	NA
119	23	21	M	Filler	107	5	of	8	50.0	NA
119	23	21	M	Filler	107	5	town	9	50.0	NA
119	23	21	M	Filler	107	5	because	10	67.0	NA
119	23	21	M	Filler	107	5	he	11	66.0	NA
119	23	21	M	Filler	107	5	had	12	34.0	NA
119	23	21	M	Filler	107	5	little	13	50.0	NA
119	23	21	M	Filler	107	5	experience.	14	66.0	NA
119	23	21	M	Question	107	5	NA	NA	2701.0	1
120	23	21	M	swets	19	2	The	1	611.0	NA
120	23	21	M	swets	19	2	mistress	2	100.0	NA
120	23	21	M	swets	19	2	of	3	101.0	NA
120	23	21	M	swets	19	2	the	4	116.0	NA
120	23	21	M	swets	19	2	actor	5	83.0	NA
120	23	21	M	swets	19	2	who	6	68.0	NA
120	23	21	M	swets	19	2	hated	7	49.0	NA
120	23	21	M	swets	19	2	himself	8	101.0	NA
120	23	21	M	swets	19	2	for	9	100.0	NA
120	23	21	M	swets	19	2	lying	10	117.0	NA
120	23	21	M	swets	19	2	left	11	149.0	NA
120	23	21	M	swets	19	2	town	12	84.0	NA
120	23	21	M	swets	19	2	in	13	100.0	NA
120	23	21	M	swets	19	2	a	14	116.0	NA
120	23	21	M	swets	19	2	hurry.	15	101.0	NA
120	23	21	M	Question	19	2	NA	NA	1482.0	1
121	23	21	M	Filler	138	7	While	1	227.0	NA
121	23	21	M	Filler	138	7	Pedro	2	401.0	NA
121	23	21	M	Filler	138	7	was	3	235.0	NA
121	23	21	M	Filler	138	7	swimming	4	83.0	NA
121	23	21	M	Filler	138	7	the	5	66.0	NA
121	23	21	M	Filler	138	7	lifeguard	6	66.0	NA
121	23	21	M	Filler	138	7	sat	7	35.0	NA
121	23	21	M	Filler	138	7	in	8	67.0	NA
121	23	21	M	Filler	138	7	his	9	433.0	NA
121	23	21	M	Filler	138	7	chair.	10	83.0	NA
121	23	21	M	Question	138	7	NA	NA	2633.0	1
122	23	21	M	Filler	68	4	The	1	310.0	NA
122	23	21	M	Filler	68	4	scientist	2	84.0	NA
122	23	21	M	Filler	68	4	published	3	66.0	NA
122	23	21	M	Filler	68	4	a	4	50.0	NA
122	23	21	M	Filler	68	4	paper	5	67.0	NA
122	23	21	M	Filler	68	4	in	6	65.0	NA
122	23	21	M	Filler	68	4	the	7	67.0	NA
122	23	21	M	Filler	68	4	journal	8	67.0	NA
122	23	21	M	Filler	68	4	of	9	17.0	NA
122	23	21	M	Filler	68	4	the	10	66.0	NA
122	23	21	M	Filler	68	4	foreign	11	51.0	NA
122	23	21	M	Filler	68	4	organization.	12	65.0	NA
122	23	21	M	Question	68	4	NA	NA	1467.0	1
123	23	21	M	Filler	63	4	The	1	179.0	NA
123	23	21	M	Filler	63	4	bride	2	101.0	NA
123	23	21	M	Filler	63	4	was	3	82.0	NA
123	23	21	M	Filler	63	4	devastated	4	116.0	NA
123	23	21	M	Filler	63	4	to	5	33.0	NA
123	23	21	M	Filler	63	4	lose	6	69.0	NA
123	23	21	M	Filler	63	4	her	7	49.0	NA
123	23	21	M	Filler	63	4	gold	8	67.0	NA
123	23	21	M	Filler	63	4	ring	9	50.0	NA
123	23	21	M	Filler	63	4	with	10	50.0	NA
123	23	21	M	Filler	63	4	a	11	51.0	NA
123	23	21	M	Filler	63	4	gleaming	12	49.0	NA
123	23	21	M	Filler	63	4	diamond	13	67.0	NA
123	23	21	M	Filler	63	4	in	14	333.0	NA
123	23	21	M	Filler	63	4	the	15	67.0	NA
123	23	21	M	Filler	63	4	middle.	16	382.0	NA
123	23	21	M	Question	63	4	NA	NA	1201.0	1
124	23	21	M	Filler	94	5	After	1	128.0	NA
124	23	21	M	Filler	94	5	months	2	101.0	NA
124	23	21	M	Filler	94	5	of	3	82.0	NA
124	23	21	M	Filler	94	5	preparation	4	68.0	NA
124	23	21	M	Filler	94	5	the	5	50.0	NA
124	23	21	M	Filler	94	5	ballerina	6	67.0	NA
124	23	21	M	Filler	94	5	was	7	34.0	NA
124	23	21	M	Filler	94	5	getting	8	82.0	NA
124	23	21	M	Filler	94	5	ready	9	82.0	NA
124	23	21	M	Filler	94	5	for	10	35.0	NA
124	23	21	M	Filler	94	5	opening	11	81.0	NA
124	23	21	M	Filler	94	5	night.	12	18.0	NA
124	23	21	M	Question	94	5	NA	NA	2668.0	1
125	23	21	M	Filler	45	4	The	1	77.0	NA
125	23	21	M	Filler	45	4	plumber	2	69.0	NA
125	23	21	M	Filler	45	4	repaired	3	83.0	NA
125	23	21	M	Filler	45	4	the	4	83.0	NA
125	23	21	M	Filler	45	4	sink	5	83.0	NA
125	23	21	M	Filler	45	4	of	6	51.0	NA
125	23	21	M	Filler	45	4	the	7	517.0	NA
125	23	21	M	Filler	45	4	tenant	8	117.0	NA
125	23	21	M	Filler	45	4	because	9	100.0	NA
125	23	21	M	Filler	45	4	he	10	316.0	NA
125	23	21	M	Filler	45	4	had	11	84.0	NA
125	23	21	M	Filler	45	4	just	12	183.0	NA
125	23	21	M	Filler	45	4	moved	13	150.0	NA
125	23	21	M	Filler	45	4	in.	14	118.0	NA
125	23	21	M	Question	45	4	NA	NA	1098.0	1
126	23	21	M	swets	22	2	The	1	629.0	NA
126	23	21	M	swets	22	2	niece	2	84.0	NA
126	23	21	M	swets	22	2	of	3	83.0	NA
126	23	21	M	swets	22	2	the	4	51.0	NA
126	23	21	M	swets	22	2	commander	5	51.0	NA
126	23	21	M	swets	22	2	who	6	65.0	NA
126	23	21	M	swets	22	2	calmed	7	100.0	NA
126	23	21	M	swets	22	2	himself	8	166.0	NA
126	23	21	M	swets	22	2	after	9	67.0	NA
126	23	21	M	swets	22	2	the	10	84.0	NA
126	23	21	M	swets	22	2	tragedy	11	184.0	NA
126	23	21	M	swets	22	2	was	12	200.0	NA
126	23	21	M	swets	22	2	waiting	13	182.0	NA
126	23	21	M	swets	22	2	for	14	134.0	NA
126	23	21	M	swets	22	2	the	15	217.0	NA
126	23	21	M	swets	22	2	doctor.	16	133.0	NA
126	23	21	M	Question	22	2	NA	NA	1201.0	1
127	23	21	M	Filler	142	7	The	1	412.0	NA
127	23	21	M	Filler	142	7	cats	2	83.0	NA
127	23	21	M	Filler	142	7	and	3	67.0	NA
127	23	21	M	Filler	142	7	dogs	4	166.0	NA
127	23	21	M	Filler	142	7	glared	5	134.0	NA
127	23	21	M	Filler	142	7	at	6	183.0	NA
127	23	21	M	Filler	142	7	each	7	148.0	NA
127	23	21	M	Filler	142	7	other	8	51.0	NA
127	23	21	M	Filler	142	7	warily.	9	67.0	NA
127	23	21	M	Question	142	7	NA	NA	2300.0	1
128	23	21	M	Filler	72	4	The	1	261.0	NA
128	23	21	M	Filler	72	4	secretaries	2	67.0	NA
128	23	21	M	Filler	72	4	couldn't	3	67.0	NA
128	23	21	M	Filler	72	4	break	4	67.0	NA
128	23	21	M	Filler	72	4	away	5	82.0	NA
128	23	21	M	Filler	72	4	from	6	34.0	NA
128	23	21	M	Filler	72	4	their	7	50.0	NA
128	23	21	M	Filler	72	4	habit	8	67.0	NA
128	23	21	M	Filler	72	4	of	9	67.0	NA
128	23	21	M	Filler	72	4	coffee	10	82.0	NA
128	23	21	M	Filler	72	4	and	11	35.0	NA
128	23	21	M	Filler	72	4	cigarettes	12	66.0	NA
128	23	21	M	Filler	72	4	during	13	100.0	NA
128	23	21	M	Filler	72	4	their	14	150.0	NA
128	23	21	M	Filler	72	4	breaks.	15	217.0	NA
128	23	21	M	Question	72	4	NA	NA	1066.0	1
129	23	21	M	Filler	71	4	The	1	144.0	NA
129	23	21	M	Filler	71	4	elderly	2	82.0	NA
129	23	21	M	Filler	71	4	woman	3	34.0	NA
129	23	21	M	Filler	71	4	locked	4	50.0	NA
129	23	21	M	Filler	71	4	and	5	50.0	NA
129	23	21	M	Filler	71	4	bolted	6	51.0	NA
129	23	21	M	Filler	71	4	her	7	67.0	NA
129	23	21	M	Filler	71	4	door	8	50.0	NA
129	23	21	M	Filler	71	4	every	9	50.0	NA
129	23	21	M	Filler	71	4	night	10	67.0	NA
129	23	21	M	Filler	71	4	after	11	83.0	NA
129	23	21	M	Filler	71	4	the	12	34.0	NA
129	23	21	M	Filler	71	4	robbers	13	216.0	NA
129	23	21	M	Filler	71	4	took	14	49.0	NA
129	23	21	M	Filler	71	4	her	15	318.0	NA
129	23	21	M	Filler	71	4	best	16	66.0	NA
129	23	21	M	Filler	71	4	pearls.	17	383.0	NA
129	23	21	M	Question	71	4	NA	NA	1268.0	1
130	23	21	M	Filler	65	4	Even	1	261.0	NA
130	23	21	M	Filler	65	4	though	2	66.0	NA
130	23	21	M	Filler	65	4	the	3	50.0	NA
130	23	21	M	Filler	65	4	goalie	4	67.0	NA
130	23	21	M	Filler	65	4	had	5	50.0	NA
130	23	21	M	Filler	65	4	a	6	18.0	NA
130	23	21	M	Filler	65	4	bad	7	33.0	NA
130	23	21	M	Filler	65	4	cold	8	34.0	NA
130	23	21	M	Filler	65	4	the	9	50.0	NA
130	23	21	M	Filler	65	4	team	10	50.0	NA
130	23	21	M	Filler	65	4	was	11	49.0	NA
130	23	21	M	Filler	65	4	preparing	12	68.0	NA
130	23	21	M	Filler	65	4	for	13	65.0	NA
130	23	21	M	Filler	65	4	the	14	52.0	NA
130	23	21	M	Filler	65	4	tournament.	15	66.0	NA
130	23	21	M	Question	65	4	NA	NA	866.0	1
131	23	21	M	Filler	101	5	The	1	227.0	NA
131	23	21	M	Filler	101	5	friendly	2	68.0	NA
131	23	21	M	Filler	101	5	woman	3	66.0	NA
131	23	21	M	Filler	101	5	was	4	51.0	NA
131	23	21	M	Filler	101	5	insulted	5	34.0	NA
131	23	21	M	Filler	101	5	by	6	33.0	NA
131	23	21	M	Filler	101	5	the	7	35.0	NA
131	23	21	M	Filler	101	5	rude	8	98.0	NA
131	23	21	M	Filler	101	5	stranger	9	67.0	NA
131	23	21	M	Filler	101	5	because	10	34.0	NA
131	23	21	M	Filler	101	5	he	11	49.0	NA
131	23	21	M	Filler	101	5	didn't	12	34.0	NA
131	23	21	M	Filler	101	5	smile	13	83.0	NA
131	23	21	M	Filler	101	5	at	14	66.0	NA
131	23	21	M	Filler	101	5	her.	15	35.0	NA
131	23	21	M	Question	101	5	NA	NA	4101.0	1
132	23	21	M	Filler	124	6	The	1	378.0	NA
132	23	21	M	Filler	124	6	mothers	2	83.0	NA
132	23	21	M	Filler	124	6	and	3	35.0	NA
132	23	21	M	Filler	124	6	teachers	4	82.0	NA
132	23	21	M	Filler	124	6	played	5	151.0	NA
132	23	21	M	Filler	124	6	tennis	6	82.0	NA
132	23	21	M	Filler	124	6	after	7	51.0	NA
132	23	21	M	Filler	124	6	the	8	32.0	NA
132	23	21	M	Filler	124	6	kids	9	35.0	NA
132	23	21	M	Filler	124	6	left.	10	82.0	NA
132	23	21	M	Question	124	6	NA	NA	1002.0	1
133	23	21	M	Filler	123	6	The	1	279.0	NA
133	23	21	M	Filler	123	6	student	2	66.0	NA
133	23	21	M	Filler	123	6	and	3	51.0	NA
133	23	21	M	Filler	123	6	professor	4	66.0	NA
133	23	21	M	Filler	123	6	went	5	83.0	NA
133	23	21	M	Filler	123	6	for	6	50.0	NA
133	23	21	M	Filler	123	6	a	7	34.0	NA
133	23	21	M	Filler	123	6	walk	8	67.0	NA
133	23	21	M	Filler	123	6	last	9	115.0	NA
133	23	21	M	Filler	123	6	Tuesday.	10	35.0	NA
133	23	21	M	Question	123	6	NA	NA	3184.0	1
134	23	21	M	Filler	90	5	The	1	262.0	NA
134	23	21	M	Filler	90	5	artist	2	68.0	NA
134	23	21	M	Filler	90	5	was	3	50.0	NA
134	23	21	M	Filler	90	5	not	4	99.0	NA
134	23	21	M	Filler	90	5	satisfied	5	167.0	NA
134	23	21	M	Filler	90	5	with	6	50.0	NA
134	23	21	M	Filler	90	5	his	7	67.0	NA
134	23	21	M	Filler	90	5	painting	8	117.0	NA
134	23	21	M	Filler	90	5	because	9	66.0	NA
134	23	21	M	Filler	90	5	the	10	34.0	NA
134	23	21	M	Filler	90	5	shading	11	83.0	NA
134	23	21	M	Filler	90	5	was	12	117.0	NA
134	23	21	M	Filler	90	5	off.	13	66.0	NA
134	23	21	M	Question	90	5	NA	NA	2733.0	1
135	23	21	M	swets	24	1	The	1	229.0	NA
135	23	21	M	swets	24	1	assistant	2	82.0	NA
135	23	21	M	swets	24	1	of	3	51.0	NA
135	23	21	M	swets	24	1	the	4	49.0	NA
135	23	21	M	swets	24	1	chaplain	5	68.0	NA
135	23	21	M	swets	24	1	who	6	82.0	NA
135	23	21	M	swets	24	1	drew	7	32.0	NA
135	23	21	M	swets	24	1	attention	8	66.0	NA
135	23	21	M	swets	24	1	to	9	18.0	NA
135	23	21	M	swets	24	1	himself	10	68.0	NA
135	23	21	M	swets	24	1	all	11	33.0	NA
135	23	21	M	swets	24	1	the	12	48.0	NA
135	23	21	M	swets	24	1	time	13	68.0	NA
135	23	21	M	swets	24	1	hated	14	66.0	NA
135	23	21	M	swets	24	1	small	15	117.0	NA
135	23	21	M	swets	24	1	children.	16	67.0	NA
135	23	21	M	Question	24	1	NA	NA	2768.0	1
136	23	21	M	Filler	93	5	The	1	63.0	NA
136	23	21	M	Filler	93	5	new	2	98.0	NA
136	23	21	M	Filler	93	5	book	3	68.0	NA
136	23	21	M	Filler	93	5	replaced	4	67.0	NA
136	23	21	M	Filler	93	5	the	5	50.0	NA
136	23	21	M	Filler	93	5	work	6	82.0	NA
136	23	21	M	Filler	93	5	of	7	50.0	NA
136	23	21	M	Filler	93	5	the	8	34.0	NA
136	23	21	M	Filler	93	5	leaders	9	51.0	NA
136	23	21	M	Filler	93	5	in	10	50.0	NA
136	23	21	M	Filler	93	5	the	11	49.0	NA
136	23	21	M	Filler	93	5	field	12	66.0	NA
136	23	21	M	Filler	93	5	of	13	50.0	NA
136	23	21	M	Filler	93	5	physical	14	34.0	NA
136	23	21	M	Filler	93	5	chemistry.	15	83.0	NA
136	23	21	M	Question	93	5	NA	NA	1468.0	1
137	23	21	M	Filler	66	4	The	1	362.0	NA
137	23	21	M	Filler	66	4	rare	2	82.0	NA
137	23	21	M	Filler	66	4	and	3	51.0	NA
137	23	21	M	Filler	66	4	exotic	4	66.0	NA
137	23	21	M	Filler	66	4	monkey	5	67.0	NA
137	23	21	M	Filler	66	4	was	6	50.0	NA
137	23	21	M	Filler	66	4	the	7	67.0	NA
137	23	21	M	Filler	66	4	center	8	50.0	NA
137	23	21	M	Filler	66	4	of	9	67.0	NA
137	23	21	M	Filler	66	4	attention	10	401.0	NA
137	23	21	M	Filler	66	4	at	11	50.0	NA
137	23	21	M	Filler	66	4	the	12	316.0	NA
137	23	21	M	Filler	66	4	zoo.	13	67.0	NA
137	23	21	M	Question	66	4	NA	NA	1999.0	1
138	23	21	M	Filler	135	7	While	1	295.0	NA
138	23	21	M	Filler	135	7	Donna	2	67.0	NA
138	23	21	M	Filler	135	7	and	3	100.0	NA
138	23	21	M	Filler	135	7	Scott	4	50.0	NA
138	23	21	M	Filler	135	7	met	5	51.0	NA
138	23	21	M	Filler	135	7	their	6	66.0	NA
138	23	21	M	Filler	135	7	agent	7	67.0	NA
138	23	21	M	Filler	135	7	some	8	66.0	NA
138	23	21	M	Filler	135	7	friends	9	66.0	NA
138	23	21	M	Filler	135	7	called	10	51.0	NA
138	23	21	M	Filler	135	7	and	11	34.0	NA
138	23	21	M	Filler	135	7	left	12	99.0	NA
138	23	21	M	Filler	135	7	a	13	168.0	NA
138	23	21	M	Filler	135	7	message.	14	131.0	NA
138	23	21	M	Question	135	7	NA	NA	2735.0	1
139	23	21	M	Filler	117	6	While	1	227.0	NA
139	23	21	M	Filler	117	6	Mike	2	67.0	NA
139	23	21	M	Filler	117	6	coughed	3	67.0	NA
139	23	21	M	Filler	117	6	Janet	4	67.0	NA
139	23	21	M	Filler	117	6	went	5	67.0	NA
139	23	21	M	Filler	117	6	out	6	115.0	NA
139	23	21	M	Filler	117	6	to	7	51.0	NA
139	23	21	M	Filler	117	6	get	8	99.0	NA
139	23	21	M	Filler	117	6	some	9	67.0	NA
139	23	21	M	Filler	117	6	cough	10	66.0	NA
139	23	21	M	Filler	117	6	medicine.	11	68.0	NA
139	23	21	M	Question	117	6	NA	NA	1000.0	1
140	23	21	M	Filler	52	4	The	1	1145.0	NA
140	23	21	M	Filler	52	4	students	2	99.0	NA
140	23	21	M	Filler	52	4	were	3	67.0	NA
140	23	21	M	Filler	52	4	bored	4	34.0	NA
140	23	21	M	Filler	52	4	by	5	66.0	NA
140	23	21	M	Filler	52	4	the	6	33.0	NA
140	23	21	M	Filler	52	4	teacher.	7	66.0	NA
140	23	21	M	Question	52	4	NA	NA	968.0	1
141	23	21	M	Filler	76	5	After	1	527.0	NA
141	23	21	M	Filler	76	5	fifty	2	83.0	NA
141	23	21	M	Filler	76	5	years	3	35.0	NA
141	23	21	M	Filler	76	5	of	4	98.0	NA
141	23	21	M	Filler	76	5	marriage	5	67.0	NA
141	23	21	M	Filler	76	5	the	6	51.0	NA
141	23	21	M	Filler	76	5	old	7	50.0	NA
141	23	21	M	Filler	76	5	couple	8	66.0	NA
141	23	21	M	Filler	76	5	still	9	34.0	NA
141	23	21	M	Filler	76	5	felt	10	50.0	NA
141	23	21	M	Filler	76	5	the	11	50.0	NA
141	23	21	M	Filler	76	5	same	12	83.0	NA
141	23	21	M	Filler	76	5	about	13	33.0	NA
141	23	21	M	Filler	76	5	each	14	50.0	NA
141	23	21	M	Filler	76	5	other	15	51.0	NA
141	23	21	M	Filler	76	5	as	16	249.0	NA
141	23	21	M	Filler	76	5	they	17	301.0	NA
141	23	21	M	Filler	76	5	had	18	68.0	NA
141	23	21	M	Filler	76	5	on	19	215.0	NA
141	23	21	M	Filler	76	5	their	20	151.0	NA
141	23	21	M	Filler	76	5	wedding	21	181.0	NA
141	23	21	M	Filler	76	5	day.	22	217.0	NA
141	23	21	M	Question	76	5	NA	NA	1333.0	1
142	23	21	M	Filler	42	4	After	1	195.0	NA
142	23	21	M	Filler	42	4	dinner	2	98.0	NA
142	23	21	M	Filler	42	4	the	3	51.0	NA
142	23	21	M	Filler	42	4	children	4	68.0	NA
142	23	21	M	Filler	42	4	gathered	5	66.0	NA
142	23	21	M	Filler	42	4	in	6	67.0	NA
142	23	21	M	Filler	42	4	a	7	50.0	NA
142	23	21	M	Filler	42	4	circle	8	67.0	NA
142	23	21	M	Filler	42	4	to	9	33.0	NA
142	23	21	M	Filler	42	4	listen	10	51.0	NA
142	23	21	M	Filler	42	4	to	11	216.0	NA
142	23	21	M	Filler	42	4	their	12	51.0	NA
142	23	21	M	Filler	42	4	grandmother's	13	32.0	NA
142	23	21	M	Filler	42	4	stories	14	99.0	NA
142	23	21	M	Filler	42	4	about	15	300.0	NA
142	23	21	M	Filler	42	4	the	16	233.0	NA
142	23	21	M	Filler	42	4	good	17	135.0	NA
142	23	21	M	Filler	42	4	old	18	301.0	NA
142	23	21	M	Filler	42	4	days.	19	332.0	NA
142	23	21	M	Question	42	4	NA	NA	834.0	1
143	23	21	M	Filler	141	7	The	1	177.0	NA
143	23	21	M	Filler	141	7	nurse	2	102.0	NA
143	23	21	M	Filler	141	7	and	3	66.0	NA
143	23	21	M	Filler	141	7	custodian	4	67.0	NA
143	23	21	M	Filler	141	7	chatted	5	65.0	NA
143	23	21	M	Filler	141	7	during	6	69.0	NA
143	23	21	M	Filler	141	7	their	7	82.0	NA
143	23	21	M	Filler	141	7	break.	8	68.0	NA
143	23	21	M	Question	141	7	NA	NA	1465.0	1
