trial	subj	age	gender	stimulustype	item	condition	word	position	rt	correct
0	30	23	f	swets	15	2	The	1	479.0	NA
0	30	23	f	swets	15	2	husband	2	416.0	NA
0	30	23	f	swets	15	2	of	3	401.0	NA
0	30	23	f	swets	15	2	the	4	332.0	NA
0	30	23	f	swets	15	2	beautician	5	551.0	NA
0	30	23	f	swets	15	2	who	6	568.0	NA
0	30	23	f	swets	15	2	cut	7	835.0	NA
0	30	23	f	swets	15	2	herself	8	451.0	NA
0	30	23	f	swets	15	2	on	9	599.0	NA
0	30	23	f	swets	15	2	the	10	315.0	NA
0	30	23	f	swets	15	2	broken	11	437.0	NA
0	30	23	f	swets	15	2	glass	12	417.0	NA
0	30	23	f	swets	15	2	phoned	13	582.0	NA
0	30	23	f	swets	15	2	for	14	332.0	NA
0	30	23	f	swets	15	2	a	15	437.0	NA
0	30	23	f	swets	15	2	doctor.	16	415.0	NA
0	30	23	f	Question	15	2	NA	NA	1379.0	1
1	30	23	f	Filler	78	5	The	1	345.0	NA
1	30	23	f	Filler	78	5	customer	2	217.0	NA
1	30	23	f	Filler	78	5	complimented	3	333.0	NA
1	30	23	f	Filler	78	5	the	4	554.0	NA
1	30	23	f	Filler	78	5	store	5	251.0	NA
1	30	23	f	Filler	78	5	keeper	6	332.0	NA
1	30	23	f	Filler	78	5	with	7	367.0	NA
1	30	23	f	Filler	78	5	the	8	334.0	NA
1	30	23	f	Filler	78	5	new	9	334.0	NA
1	30	23	f	Filler	78	5	stock.	10	351.0	NA
1	30	23	f	Question	78	5	NA	NA	1211.0	1
2	30	23	f	Filler	61	4	The	1	263.0	NA
2	30	23	f	Filler	61	4	lemon	2	332.0	NA
2	30	23	f	Filler	61	4	squirted	3	383.0	NA
2	30	23	f	Filler	61	4	into	4	400.0	NA
2	30	23	f	Filler	61	4	the	5	334.0	NA
2	30	23	f	Filler	61	4	debutante's	6	432.0	NA
2	30	23	f	Filler	61	4	eye	7	550.0	NA
2	30	23	f	Filler	61	4	as	8	418.0	NA
2	30	23	f	Filler	61	4	she	9	401.0	NA
2	30	23	f	Filler	61	4	tried	10	384.0	NA
2	30	23	f	Filler	61	4	to	11	351.0	NA
2	30	23	f	Filler	61	4	impress	12	414.0	NA
2	30	23	f	Filler	61	4	her	13	353.0	NA
2	30	23	f	Filler	61	4	mother's	14	416.0	NA
2	30	23	f	Filler	61	4	society	15	481.0	NA
2	30	23	f	Filler	61	4	friends.	16	470.0	NA
2	30	23	f	Question	61	4	NA	NA	975.0	1
3	30	23	f	Filler	132	7	While	1	279.0	NA
3	30	23	f	Filler	132	7	John	2	466.0	NA
3	30	23	f	Filler	132	7	and	3	451.0	NA
3	30	23	f	Filler	132	7	Mary	4	399.0	NA
3	30	23	f	Filler	132	7	kissed	5	450.0	NA
3	30	23	f	Filler	132	7	their	6	451.0	NA
3	30	23	f	Filler	132	7	daughter	7	349.0	NA
3	30	23	f	Filler	132	7	fell	8	404.0	NA
3	30	23	f	Filler	132	7	asleep.	9	464.0	NA
3	30	23	f	Question	132	7	NA	NA	1578.0	1
4	30	23	f	Filler	140	7	The	1	263.0	NA
4	30	23	f	Filler	140	7	investigators	2	383.0	NA
4	30	23	f	Filler	140	7	asked	3	302.0	NA
4	30	23	f	Filler	140	7	which	4	384.0	NA
4	30	23	f	Filler	140	7	mansion	5	284.0	NA
4	30	23	f	Filler	140	7	the	6	299.0	NA
4	30	23	f	Filler	140	7	owner	7	400.0	NA
4	30	23	f	Filler	140	7	sold	8	352.0	NA
4	30	23	f	Filler	140	7	and	9	316.0	NA
4	30	23	f	Filler	140	7	didn't	10	283.0	NA
4	30	23	f	Filler	140	7	repair	11	316.0	NA
4	30	23	f	Filler	140	7	ten	12	352.0	NA
4	30	23	f	Filler	140	7	years	13	449.0	NA
4	30	23	f	Filler	140	7	ago.	14	334.0	NA
4	30	23	f	Question	140	7	NA	NA	1478.0	1
5	30	23	f	swets	20	1	The	1	296.0	NA
5	30	23	f	swets	20	1	brother	2	299.0	NA
5	30	23	f	swets	20	1	of	3	584.0	NA
5	30	23	f	swets	20	1	the	4	618.0	NA
5	30	23	f	swets	20	1	count	5	551.0	NA
5	30	23	f	swets	20	1	who	6	535.0	NA
5	30	23	f	swets	20	1	crippled	7	447.0	NA
5	30	23	f	swets	20	1	himself	8	386.0	NA
5	30	23	f	swets	20	1	by	9	432.0	NA
5	30	23	f	swets	20	1	falling	10	535.0	NA
5	30	23	f	swets	20	1	off	11	365.0	NA
5	30	23	f	swets	20	1	a	12	516.0	NA
5	30	23	f	swets	20	1	horse	13	334.0	NA
5	30	23	f	swets	20	1	took	14	535.0	NA
5	30	23	f	swets	20	1	a	15	718.0	NA
5	30	23	f	swets	20	1	long	16	350.0	NA
5	30	23	f	swets	20	1	time	17	301.0	NA
5	30	23	f	swets	20	1	to	18	333.0	NA
5	30	23	f	swets	20	1	get	19	383.0	NA
5	30	23	f	swets	20	1	over	20	333.0	NA
5	30	23	f	swets	20	1	it.	21	400.0	NA
5	30	23	f	Question	20	1	NA	NA	1043.0	1
6	30	23	f	Filler	105	5	The	1	246.0	NA
6	30	23	f	Filler	105	5	actors	2	283.0	NA
6	30	23	f	Filler	105	5	rehearsed	3	250.0	NA
6	30	23	f	Filler	105	5	the	4	467.0	NA
6	30	23	f	Filler	105	5	play	5	467.0	NA
6	30	23	f	Filler	105	5	so	6	483.0	NA
6	30	23	f	Filler	105	5	much	7	269.0	NA
6	30	23	f	Filler	105	5	that	8	384.0	NA
6	30	23	f	Filler	105	5	they	9	351.0	NA
6	30	23	f	Filler	105	5	became	10	264.0	NA
6	30	23	f	Filler	105	5	bored	11	200.0	NA
6	30	23	f	Filler	105	5	with	12	283.0	NA
6	30	23	f	Filler	105	5	it.	13	318.0	NA
6	30	23	f	Question	105	5	NA	NA	1913.0	1
7	30	23	f	Filler	59	4	The	1	278.0	NA
7	30	23	f	Filler	59	4	conductor	2	200.0	NA
7	30	23	f	Filler	59	4	of	3	333.0	NA
7	30	23	f	Filler	59	4	the	4	300.0	NA
7	30	23	f	Filler	59	4	orchestra	5	318.0	NA
7	30	23	f	Filler	59	4	with	6	399.0	NA
7	30	23	f	Filler	59	4	the	7	367.0	NA
7	30	23	f	Filler	59	4	bald	8	317.0	NA
7	30	23	f	Filler	59	4	head	9	368.0	NA
7	30	23	f	Filler	59	4	plays	10	367.0	NA
7	30	23	f	Filler	59	4	excellently.	11	518.0	NA
7	30	23	f	Question	59	4	NA	NA	1141.0	1
8	30	23	f	Filler	114	6	While	1	244.0	NA
8	30	23	f	Filler	114	6	the	2	302.0	NA
8	30	23	f	Filler	114	6	winners	3	233.0	NA
8	30	23	f	Filler	114	6	were	4	354.0	NA
8	30	23	f	Filler	114	6	kissing	5	232.0	NA
8	30	23	f	Filler	114	6	the	6	367.0	NA
8	30	23	f	Filler	114	6	crowd	7	301.0	NA
8	30	23	f	Filler	114	6	cheered	8	233.0	NA
8	30	23	f	Filler	114	6	wildly.	9	283.0	NA
8	30	23	f	Question	114	6	NA	NA	943.0	1
9	30	23	f	Filler	45	4	The	1	129.0	NA
9	30	23	f	Filler	45	4	plumber	2	185.0	NA
9	30	23	f	Filler	45	4	repaired	3	282.0	NA
9	30	23	f	Filler	45	4	the	4	318.0	NA
9	30	23	f	Filler	45	4	sink	5	251.0	NA
9	30	23	f	Filler	45	4	of	6	234.0	NA
9	30	23	f	Filler	45	4	the	7	264.0	NA
9	30	23	f	Filler	45	4	tenant	8	385.0	NA
9	30	23	f	Filler	45	4	because	9	283.0	NA
9	30	23	f	Filler	45	4	he	10	333.0	NA
9	30	23	f	Filler	45	4	had	11	267.0	NA
9	30	23	f	Filler	45	4	just	12	382.0	NA
9	30	23	f	Filler	45	4	moved	13	252.0	NA
9	30	23	f	Filler	45	4	in.	14	248.0	NA
9	30	23	f	Question	45	4	NA	NA	813.0	1
10	30	23	f	Filler	70	4	The	1	313.0	NA
10	30	23	f	Filler	70	4	warden	2	216.0	NA
10	30	23	f	Filler	70	4	was	3	201.0	NA
10	30	23	f	Filler	70	4	dissatisfied	4	314.0	NA
10	30	23	f	Filler	70	4	with	5	352.0	NA
10	30	23	f	Filler	70	4	the	6	318.0	NA
10	30	23	f	Filler	70	4	decision	7	381.0	NA
10	30	23	f	Filler	70	4	of	8	385.0	NA
10	30	23	f	Filler	70	4	the	9	285.0	NA
10	30	23	f	Filler	70	4	parole	10	315.0	NA
10	30	23	f	Filler	70	4	committee	11	332.0	NA
10	30	23	f	Filler	70	4	to	12	353.0	NA
10	30	23	f	Filler	70	4	pardon	13	265.0	NA
10	30	23	f	Filler	70	4	the	14	317.0	NA
10	30	23	f	Filler	70	4	prisoner.	15	349.0	NA
10	30	23	f	Question	70	4	NA	NA	994.0	1
11	30	23	f	Filler	130	7	While	1	377.0	NA
11	30	23	f	Filler	130	7	Margo	2	317.0	NA
11	30	23	f	Filler	130	7	bathed	3	934.0	NA
11	30	23	f	Filler	130	7	the	4	368.0	NA
11	30	23	f	Filler	130	7	dog	5	384.0	NA
11	30	23	f	Filler	130	7	barked	6	300.0	NA
11	30	23	f	Filler	130	7	in	7	382.0	NA
11	30	23	f	Filler	130	7	the	8	251.0	NA
11	30	23	f	Filler	130	7	yard.	9	367.0	NA
11	30	23	f	Question	130	7	NA	NA	1546.0	1
12	30	23	f	swets	17	1	The	1	212.0	NA
12	30	23	f	swets	17	1	grandmother	2	216.0	NA
12	30	23	f	swets	17	1	of	3	184.0	NA
12	30	23	f	swets	17	1	the	4	248.0	NA
12	30	23	f	swets	17	1	heiress	5	186.0	NA
12	30	23	f	swets	17	1	who	6	301.0	NA
12	30	23	f	swets	17	1	bankrupted	7	367.0	NA
12	30	23	f	swets	17	1	herself	8	417.0	NA
12	30	23	f	swets	17	1	last	9	400.0	NA
12	30	23	f	swets	17	1	year	10	250.0	NA
12	30	23	f	swets	17	1	still	11	285.0	NA
12	30	23	f	swets	17	1	made	12	466.0	NA
12	30	23	f	swets	17	1	risky	13	198.0	NA
12	30	23	f	swets	17	1	investments.	14	419.0	NA
12	30	23	f	Question	17	1	NA	NA	1327.0	1
13	30	23	f	Filler	62	4	After	1	112.0	NA
13	30	23	f	Filler	62	4	much	2	101.0	NA
13	30	23	f	Filler	62	4	deliberation	3	166.0	NA
13	30	23	f	Filler	62	4	the	4	281.0	NA
13	30	23	f	Filler	62	4	jury	5	185.0	NA
13	30	23	f	Filler	62	4	found	6	383.0	NA
13	30	23	f	Filler	62	4	the	7	184.0	NA
13	30	23	f	Filler	62	4	defendant	8	100.0	NA
13	30	23	f	Filler	62	4	not	9	333.0	NA
13	30	23	f	Filler	62	4	guilty.	10	267.0	NA
13	30	23	f	Question	62	4	NA	NA	2597.0	1
14	30	23	f	Filler	137	7	When	1	328.0	NA
14	30	23	f	Filler	137	7	Leslie	2	570.0	NA
14	30	23	f	Filler	137	7	was	3	515.0	NA
14	30	23	f	Filler	137	7	sneezing	4	234.0	NA
14	30	23	f	Filler	137	7	her	5	251.0	NA
14	30	23	f	Filler	137	7	friends	6	298.0	NA
14	30	23	f	Filler	137	7	laughed	7	201.0	NA
14	30	23	f	Filler	137	7	at	8	298.0	NA
14	30	23	f	Filler	137	7	her.	9	186.0	NA
14	30	23	f	Question	137	7	NA	NA	843.0	1
15	30	23	f	Filler	43	4	The	1	110.0	NA
15	30	23	f	Filler	43	4	movie	2	301.0	NA
15	30	23	f	Filler	43	4	director	3	335.0	NA
15	30	23	f	Filler	43	4	refused	4	248.0	NA
15	30	23	f	Filler	43	4	to	5	299.0	NA
15	30	23	f	Filler	43	4	work	6	216.0	NA
15	30	23	f	Filler	43	4	with	7	251.0	NA
15	30	23	f	Filler	43	4	the	8	268.0	NA
15	30	23	f	Filler	43	4	producer	9	214.0	NA
15	30	23	f	Filler	43	4	again	10	352.0	NA
15	30	23	f	Filler	43	4	after	11	232.0	NA
15	30	23	f	Filler	43	4	winning	12	218.0	NA
15	30	23	f	Filler	43	4	the	13	284.0	NA
15	30	23	f	Filler	43	4	grand	14	283.0	NA
15	30	23	f	Filler	43	4	prize.	15	269.0	NA
15	30	23	f	Question	43	4	NA	NA	763.0	1
16	30	23	f	Filler	85	5	The	1	328.0	NA
16	30	23	f	Filler	85	5	college	2	166.0	NA
16	30	23	f	Filler	85	5	students	3	135.0	NA
16	30	23	f	Filler	85	5	were	4	152.0	NA
16	30	23	f	Filler	85	5	upset	5	315.0	NA
16	30	23	f	Filler	85	5	that	6	320.0	NA
16	30	23	f	Filler	85	5	they	7	183.0	NA
16	30	23	f	Filler	85	5	had	8	332.0	NA
16	30	23	f	Filler	85	5	an	9	284.0	NA
16	30	23	f	Filler	85	5	exam	10	366.0	NA
16	30	23	f	Filler	85	5	the	11	302.0	NA
16	30	23	f	Filler	85	5	next	12	265.0	NA
16	30	23	f	Filler	85	5	day.	13	151.0	NA
16	30	23	f	Question	85	5	NA	NA	1242.0	1
17	30	23	f	Filler	80	5	The	1	262.0	NA
17	30	23	f	Filler	80	5	stepfather	2	166.0	NA
17	30	23	f	Filler	80	5	of	3	85.0	NA
17	30	23	f	Filler	80	5	the	4	233.0	NA
17	30	23	f	Filler	80	5	nun	5	183.0	NA
17	30	23	f	Filler	80	5	with	6	132.0	NA
17	30	23	f	Filler	80	5	a	7	384.0	NA
17	30	23	f	Filler	80	5	long	8	215.0	NA
17	30	23	f	Filler	80	5	white	9	136.0	NA
17	30	23	f	Filler	80	5	beard	10	266.0	NA
17	30	23	f	Filler	80	5	became	11	299.0	NA
17	30	23	f	Filler	80	5	very	12	251.0	NA
17	30	23	f	Filler	80	5	ill.	13	216.0	NA
17	30	23	f	Question	80	5	NA	NA	1579.0	1
18	30	23	f	Filler	38	4	Despite	1	263.0	NA
18	30	23	f	Filler	38	4	the	2	183.0	NA
18	30	23	f	Filler	38	4	lack	3	117.0	NA
18	30	23	f	Filler	38	4	of	4	350.0	NA
18	30	23	f	Filler	38	4	publicity	5	181.0	NA
18	30	23	f	Filler	38	4	many	6	135.0	NA
18	30	23	f	Filler	38	4	people	7	182.0	NA
18	30	23	f	Filler	38	4	attended	8	336.0	NA
18	30	23	f	Filler	38	4	the	9	202.0	NA
18	30	23	f	Filler	38	4	lecture.	10	317.0	NA
18	30	23	f	Question	38	4	NA	NA	742.0	1
19	30	23	f	Filler	48	4	The	1	79.0	NA
19	30	23	f	Filler	48	4	police	2	215.0	NA
19	30	23	f	Filler	48	4	arrested	3	101.0	NA
19	30	23	f	Filler	48	4	the	4	165.0	NA
19	30	23	f	Filler	48	4	sister	5	169.0	NA
19	30	23	f	Filler	48	4	of	6	282.0	NA
19	30	23	f	Filler	48	4	the	7	118.0	NA
19	30	23	f	Filler	48	4	handyman	8	166.0	NA
19	30	23	f	Filler	48	4	after	9	369.0	NA
19	30	23	f	Filler	48	4	she	10	201.0	NA
19	30	23	f	Filler	48	4	recently	11	116.0	NA
19	30	23	f	Filler	48	4	gave	12	149.0	NA
19	30	23	f	Filler	48	4	birth	13	200.0	NA
19	30	23	f	Filler	48	4	to	14	317.0	NA
19	30	23	f	Filler	48	4	twins.	15	234.0	NA
19	30	23	f	Question	48	4	NA	NA	1109.0	1
20	30	23	f	swets	10	3	The	1	296.0	NA
20	30	23	f	swets	10	3	uncle	2	215.0	NA
20	30	23	f	swets	10	3	of	3	118.0	NA
20	30	23	f	swets	10	3	the	4	183.0	NA
20	30	23	f	swets	10	3	nun	5	200.0	NA
20	30	23	f	swets	10	3	who	6	133.0	NA
20	30	23	f	swets	10	3	lost	7	318.0	NA
20	30	23	f	swets	10	3	himself	8	184.0	NA
20	30	23	f	swets	10	3	in	9	433.0	NA
20	30	23	f	swets	10	3	thought	10	232.0	NA
20	30	23	f	swets	10	3	was	11	400.0	NA
20	30	23	f	swets	10	3	disturbed	12	350.0	NA
20	30	23	f	swets	10	3	by	13	335.0	NA
20	30	23	f	swets	10	3	the	14	252.0	NA
20	30	23	f	swets	10	3	noise.	15	164.0	NA
20	30	23	f	Question	10	3	NA	NA	977.0	1
21	30	23	f	Filler	71	4	The	1	313.0	NA
21	30	23	f	Filler	71	4	elderly	2	284.0	NA
21	30	23	f	Filler	71	4	woman	3	350.0	NA
21	30	23	f	Filler	71	4	locked	4	366.0	NA
21	30	23	f	Filler	71	4	and	5	167.0	NA
21	30	23	f	Filler	71	4	bolted	6	133.0	NA
21	30	23	f	Filler	71	4	her	7	652.0	NA
21	30	23	f	Filler	71	4	door	8	150.0	NA
21	30	23	f	Filler	71	4	every	9	316.0	NA
21	30	23	f	Filler	71	4	night	10	100.0	NA
21	30	23	f	Filler	71	4	after	11	384.0	NA
21	30	23	f	Filler	71	4	the	12	117.0	NA
21	30	23	f	Filler	71	4	robbers	13	182.0	NA
21	30	23	f	Filler	71	4	took	14	336.0	NA
21	30	23	f	Filler	71	4	her	15	251.0	NA
21	30	23	f	Filler	71	4	best	16	165.0	NA
21	30	23	f	Filler	71	4	pearls.	17	385.0	NA
21	30	23	f	Question	71	4	NA	NA	1505.0	1
22	30	23	f	Filler	49	4	The	1	312.0	NA
22	30	23	f	Filler	49	4	construction	2	151.0	NA
22	30	23	f	Filler	49	4	worker	3	164.0	NA
22	30	23	f	Filler	49	4	sued	4	137.0	NA
22	30	23	f	Filler	49	4	the	5	165.0	NA
22	30	23	f	Filler	49	4	son	6	252.0	NA
22	30	23	f	Filler	49	4	of	7	331.0	NA
22	30	23	f	Filler	49	4	that	8	168.0	NA
22	30	23	f	Filler	49	4	greedy	9	118.0	NA
22	30	23	f	Filler	49	4	banker.	10	349.0	NA
22	30	23	f	Question	49	4	NA	NA	909.0	1
23	30	23	f	Filler	44	4	The	1	246.0	NA
23	30	23	f	Filler	44	4	solicitor	2	152.0	NA
23	30	23	f	Filler	44	4	wearing	3	218.0	NA
23	30	23	f	Filler	44	4	the	4	415.0	NA
23	30	23	f	Filler	44	4	new	5	268.0	NA
23	30	23	f	Filler	44	4	tuxedo	6	248.0	NA
23	30	23	f	Filler	44	4	bothered	7	334.0	NA
23	30	23	f	Filler	44	4	a	8	218.0	NA
23	30	23	f	Filler	44	4	man	9	283.0	NA
23	30	23	f	Filler	44	4	from	10	266.0	NA
23	30	23	f	Filler	44	4	New	11	382.0	NA
23	30	23	f	Filler	44	4	York.	12	349.0	NA
23	30	23	f	Question	44	4	NA	NA	2547.0	1
24	30	23	f	Filler	64	4	Because	1	329.0	NA
24	30	23	f	Filler	64	4	a	2	199.0	NA
24	30	23	f	Filler	64	4	fire	3	217.0	NA
24	30	23	f	Filler	64	4	alarm	4	418.0	NA
24	30	23	f	Filler	64	4	interrupted	5	251.0	NA
24	30	23	f	Filler	64	4	the	6	251.0	NA
24	30	23	f	Filler	64	4	exam	7	265.0	NA
24	30	23	f	Filler	64	4	the	8	284.0	NA
24	30	23	f	Filler	64	4	scores	9	249.0	NA
24	30	23	f	Filler	64	4	were	10	184.0	NA
24	30	23	f	Filler	64	4	disqualified.	11	316.0	NA
24	30	23	f	Question	64	4	NA	NA	1177.0	1
25	30	23	f	Filler	112	6	As	1	246.0	NA
25	30	23	f	Filler	112	6	the	2	167.0	NA
25	30	23	f	Filler	112	6	dog	3	149.0	NA
25	30	23	f	Filler	112	6	was	4	132.0	NA
25	30	23	f	Filler	112	6	calming	5	101.0	NA
25	30	23	f	Filler	112	6	down	6	218.0	NA
25	30	23	f	Filler	112	6	the	7	83.0	NA
25	30	23	f	Filler	112	6	puppy	8	234.0	NA
25	30	23	f	Filler	112	6	slept	9	215.0	NA
25	30	23	f	Filler	112	6	in	10	133.0	NA
25	30	23	f	Filler	112	6	the	11	302.0	NA
25	30	23	f	Filler	112	6	cage.	12	165.0	NA
25	30	23	f	Question	112	6	NA	NA	1512.0	1
26	30	23	f	swets	23	1	The	1	296.0	NA
26	30	23	f	swets	23	1	mother	2	166.0	NA
26	30	23	f	swets	23	1	of	3	101.0	NA
26	30	23	f	swets	23	1	the	4	133.0	NA
26	30	23	f	swets	23	1	ballerina	5	201.0	NA
26	30	23	f	swets	23	1	who	6	50.0	NA
26	30	23	f	swets	23	1	found	7	201.0	NA
26	30	23	f	swets	23	1	herself	8	133.0	NA
26	30	23	f	swets	23	1	in	9	334.0	NA
26	30	23	f	swets	23	1	a	10	317.0	NA
26	30	23	f	swets	23	1	lot	11	133.0	NA
26	30	23	f	swets	23	1	of	12	284.0	NA
26	30	23	f	swets	23	1	trouble	13	199.0	NA
26	30	23	f	swets	23	1	phoned	14	269.0	NA
26	30	23	f	swets	23	1	the	15	398.0	NA
26	30	23	f	swets	23	1	police.	16	184.0	NA
26	30	23	f	Question	23	1	NA	NA	1294.0	1
27	30	23	f	Filler	56	4	The	1	163.0	NA
27	30	23	f	Filler	56	4	actor	2	183.0	NA
27	30	23	f	Filler	56	4	said	3	167.0	NA
27	30	23	f	Filler	56	4	the	4	185.0	NA
27	30	23	f	Filler	56	4	audiences	5	215.0	NA
27	30	23	f	Filler	56	4	believed	6	319.0	NA
27	30	23	f	Filler	56	4	the	7	300.0	NA
27	30	23	f	Filler	56	4	nasty	8	448.0	NA
27	30	23	f	Filler	56	4	remarks	9	433.0	NA
27	30	23	f	Filler	56	4	made	10	302.0	NA
27	30	23	f	Filler	56	4	by	11	316.0	NA
27	30	23	f	Filler	56	4	the	12	233.0	NA
27	30	23	f	Filler	56	4	film	13	335.0	NA
27	30	23	f	Filler	56	4	critic.	14	282.0	NA
27	30	23	f	Question	56	4	NA	NA	911.0	1
28	30	23	f	Filler	115	6	As	1	278.0	NA
28	30	23	f	Filler	115	6	Elaine	2	150.0	NA
28	30	23	f	Filler	115	6	and	3	335.0	NA
28	30	23	f	Filler	115	6	Robert	4	133.0	NA
28	30	23	f	Filler	115	6	fought	5	301.0	NA
28	30	23	f	Filler	115	6	the	6	199.0	NA
28	30	23	f	Filler	115	6	mosquitoes	7	451.0	NA
28	30	23	f	Filler	115	6	whined	8	316.0	NA
28	30	23	f	Filler	115	6	annoyingly.	9	268.0	NA
28	30	23	f	Question	115	6	NA	NA	1378.0	1
29	30	23	f	Filler	139	7	Laurie	1	1128.0	NA
29	30	23	f	Filler	139	7	asked	2	620.0	NA
29	30	23	f	Filler	139	7	which	3	317.0	NA
29	30	23	f	Filler	139	7	truck	4	431.0	NA
29	30	23	f	Filler	139	7	the	5	368.0	NA
29	30	23	f	Filler	139	7	dealership	6	168.0	NA
29	30	23	f	Filler	139	7	sold	7	651.0	NA
29	30	23	f	Filler	139	7	but	8	349.0	NA
29	30	23	f	Filler	139	7	didn't	9	266.0	NA
29	30	23	f	Filler	139	7	paint	10	568.0	NA
29	30	23	f	Filler	139	7	completely.	11	199.0	NA
29	30	23	f	Question	139	7	NA	NA	1011.0	0
30	30	23	f	Filler	83	5	The	1	311.0	NA
30	30	23	f	Filler	83	5	passengers	2	168.0	NA
30	30	23	f	Filler	83	5	screamed	3	965.0	NA
30	30	23	f	Filler	83	5	as	4	285.0	NA
30	30	23	f	Filler	83	5	the	5	183.0	NA
30	30	23	f	Filler	83	5	plane	6	299.0	NA
30	30	23	f	Filler	83	5	dipped	7	220.0	NA
30	30	23	f	Filler	83	5	and	8	301.0	NA
30	30	23	f	Filler	83	5	the	9	216.0	NA
30	30	23	f	Filler	83	5	pilots	10	233.0	NA
30	30	23	f	Filler	83	5	said	11	434.0	NA
30	30	23	f	Filler	83	5	their	12	198.0	NA
30	30	23	f	Filler	83	5	prayers	13	268.0	NA
30	30	23	f	Filler	83	5	quietly.	14	285.0	NA
30	30	23	f	Question	83	5	NA	NA	877.0	1
31	30	23	f	Filler	65	4	Even	1	428.0	NA
31	30	23	f	Filler	65	4	though	2	533.0	NA
31	30	23	f	Filler	65	4	the	3	351.0	NA
31	30	23	f	Filler	65	4	goalie	4	184.0	NA
31	30	23	f	Filler	65	4	had	5	216.0	NA
31	30	23	f	Filler	65	4	a	6	182.0	NA
31	30	23	f	Filler	65	4	bad	7	235.0	NA
31	30	23	f	Filler	65	4	cold	8	433.0	NA
31	30	23	f	Filler	65	4	the	9	467.0	NA
31	30	23	f	Filler	65	4	team	10	219.0	NA
31	30	23	f	Filler	65	4	was	11	149.0	NA
31	30	23	f	Filler	65	4	preparing	12	267.0	NA
31	30	23	f	Filler	65	4	for	13	402.0	NA
31	30	23	f	Filler	65	4	the	14	316.0	NA
31	30	23	f	Filler	65	4	tournament.	15	585.0	NA
31	30	23	f	Question	65	4	NA	NA	810.0	1
32	30	23	f	swets	31	3	The	1	213.0	NA
32	30	23	f	swets	31	3	aunt	2	131.0	NA
32	30	23	f	swets	31	3	of	3	302.0	NA
32	30	23	f	swets	31	3	the	4	486.0	NA
32	30	23	f	swets	31	3	milkman	5	934.0	NA
32	30	23	f	swets	31	3	who	6	249.0	NA
32	30	23	f	swets	31	3	had	7	616.0	NA
32	30	23	f	swets	31	3	to	8	451.0	NA
32	30	23	f	swets	31	3	support	9	298.0	NA
32	30	23	f	swets	31	3	herself	10	253.0	NA
32	30	23	f	swets	31	3	with	11	283.0	NA
32	30	23	f	swets	31	3	a	12	234.0	NA
32	30	23	f	swets	31	3	low	13	349.0	NA
32	30	23	f	swets	31	3	income	14	320.0	NA
32	30	23	f	swets	31	3	liked	15	364.0	NA
32	30	23	f	swets	31	3	to	16	384.0	NA
32	30	23	f	swets	31	3	fish.	17	619.0	NA
32	30	23	f	Question	31	3	NA	NA	907.0	1
33	30	23	f	Filler	111	6	While	1	361.0	NA
33	30	23	f	Filler	111	6	the	2	188.0	NA
33	30	23	f	Filler	111	6	clown	3	165.0	NA
33	30	23	f	Filler	111	6	juggled	4	235.0	NA
33	30	23	f	Filler	111	6	the	5	283.0	NA
33	30	23	f	Filler	111	6	balls	6	401.0	NA
33	30	23	f	Filler	111	6	fell	7	216.0	NA
33	30	23	f	Filler	111	6	to	8	151.0	NA
33	30	23	f	Filler	111	6	the	9	349.0	NA
33	30	23	f	Filler	111	6	ground.	10	149.0	NA
33	30	23	f	Question	111	6	NA	NA	774.0	1
34	30	23	f	swets	12	2	The	1	296.0	NA
34	30	23	f	swets	12	2	son	2	247.0	NA
34	30	23	f	swets	12	2	of	3	303.0	NA
34	30	23	f	swets	12	2	the	4	165.0	NA
34	30	23	f	swets	12	2	princess	5	317.0	NA
34	30	23	f	swets	12	2	who	6	133.0	NA
34	30	23	f	swets	12	2	scratched	7	233.0	NA
34	30	23	f	swets	12	2	himself	8	449.0	NA
34	30	23	f	swets	12	2	in	9	382.0	NA
34	30	23	f	swets	12	2	public	10	337.0	NA
34	30	23	f	swets	12	2	was	11	348.0	NA
34	30	23	f	swets	12	2	terribly	12	319.0	NA
34	30	23	f	swets	12	2	humiliated.	13	317.0	NA
34	30	23	f	Question	12	2	NA	NA	876.0	1
35	30	23	f	Filler	90	5	The	1	213.0	NA
35	30	23	f	Filler	90	5	artist	2	116.0	NA
35	30	23	f	Filler	90	5	was	3	99.0	NA
35	30	23	f	Filler	90	5	not	4	118.0	NA
35	30	23	f	Filler	90	5	satisfied	5	433.0	NA
35	30	23	f	Filler	90	5	with	6	267.0	NA
35	30	23	f	Filler	90	5	his	7	385.0	NA
35	30	23	f	Filler	90	5	painting	8	131.0	NA
35	30	23	f	Filler	90	5	because	9	817.0	NA
35	30	23	f	Filler	90	5	the	10	500.0	NA
35	30	23	f	Filler	90	5	shading	11	585.0	NA
35	30	23	f	Filler	90	5	was	12	266.0	NA
35	30	23	f	Filler	90	5	off.	13	235.0	NA
35	30	23	f	Question	90	5	NA	NA	842.0	1
36	30	23	f	Filler	77	5	Outside	1	79.0	NA
36	30	23	f	Filler	77	5	the	2	164.0	NA
36	30	23	f	Filler	77	5	courthouse	3	103.0	NA
36	30	23	f	Filler	77	5	the	4	332.0	NA
36	30	23	f	Filler	77	5	committee	5	485.0	NA
36	30	23	f	Filler	77	5	awarded	6	265.0	NA
36	30	23	f	Filler	77	5	a	7	251.0	NA
36	30	23	f	Filler	77	5	lifetime	8	283.0	NA
36	30	23	f	Filler	77	5	achievement	9	250.0	NA
36	30	23	f	Filler	77	5	prize	10	350.0	NA
36	30	23	f	Filler	77	5	to	11	317.0	NA
36	30	23	f	Filler	77	5	the	12	303.0	NA
36	30	23	f	Filler	77	5	creator	13	350.0	NA
36	30	23	f	Filler	77	5	of	14	333.0	NA
36	30	23	f	Filler	77	5	the	15	266.0	NA
36	30	23	f	Filler	77	5	sculpture.	16	267.0	NA
36	30	23	f	Question	77	5	NA	NA	1808.0	1
37	30	23	f	Filler	101	5	The	1	179.0	NA
37	30	23	f	Filler	101	5	friendly	2	150.0	NA
37	30	23	f	Filler	101	5	woman	3	117.0	NA
37	30	23	f	Filler	101	5	was	4	333.0	NA
37	30	23	f	Filler	101	5	insulted	5	216.0	NA
37	30	23	f	Filler	101	5	by	6	402.0	NA
37	30	23	f	Filler	101	5	the	7	267.0	NA
37	30	23	f	Filler	101	5	rude	8	184.0	NA
37	30	23	f	Filler	101	5	stranger	9	347.0	NA
37	30	23	f	Filler	101	5	because	10	318.0	NA
37	30	23	f	Filler	101	5	he	11	234.0	NA
37	30	23	f	Filler	101	5	didn't	12	299.0	NA
37	30	23	f	Filler	101	5	smile	13	251.0	NA
37	30	23	f	Filler	101	5	at	14	284.0	NA
37	30	23	f	Filler	101	5	her.	15	232.0	NA
37	30	23	f	Question	101	5	NA	NA	1478.0	1
38	30	23	f	Filler	51	4	The	1	262.0	NA
38	30	23	f	Filler	51	4	students	2	418.0	NA
38	30	23	f	Filler	51	4	were	3	183.0	NA
38	30	23	f	Filler	51	4	in	4	182.0	NA
38	30	23	f	Filler	51	4	a	5	153.0	NA
38	30	23	f	Filler	51	4	frenzy	6	132.0	NA
38	30	23	f	Filler	51	4	because	7	201.0	NA
38	30	23	f	Filler	51	4	they	8	265.0	NA
38	30	23	f	Filler	51	4	wanted	9	234.0	NA
38	30	23	f	Filler	51	4	tickets	10	185.0	NA
38	30	23	f	Filler	51	4	for	11	214.0	NA
38	30	23	f	Filler	51	4	the	12	202.0	NA
38	30	23	f	Filler	51	4	game	13	233.0	NA
38	30	23	f	Filler	51	4	tonight.	14	283.0	NA
38	30	23	f	Question	51	4	NA	NA	1709.0	1
39	30	23	f	Filler	58	4	The	1	28.0	NA
39	30	23	f	Filler	58	4	white	2	152.0	NA
39	30	23	f	Filler	58	4	dog	3	233.0	NA
39	30	23	f	Filler	58	4	bit	4	332.0	NA
39	30	23	f	Filler	58	4	the	5	334.0	NA
39	30	23	f	Filler	58	4	ankle	6	284.0	NA
39	30	23	f	Filler	58	4	of	7	283.0	NA
39	30	23	f	Filler	58	4	the	8	218.0	NA
39	30	23	f	Filler	58	4	child.	9	264.0	NA
39	30	23	f	Question	58	4	NA	NA	847.0	1
40	30	23	f	Filler	109	6	While	1	162.0	NA
40	30	23	f	Filler	109	6	the	2	467.0	NA
40	30	23	f	Filler	109	6	farmer	3	231.0	NA
40	30	23	f	Filler	109	6	steered	4	168.0	NA
40	30	23	f	Filler	109	6	the	5	216.0	NA
40	30	23	f	Filler	109	6	truck	6	218.0	NA
40	30	23	f	Filler	109	6	the	7	216.0	NA
40	30	23	f	Filler	109	6	tractor	8	234.0	NA
40	30	23	f	Filler	109	6	pulled	9	348.0	NA
40	30	23	f	Filler	109	6	the	10	335.0	NA
40	30	23	f	Filler	109	6	plough.	11	369.0	NA
40	30	23	f	Question	109	6	NA	NA	944.0	1
41	30	23	f	swets	36	2	The	1	195.0	NA
41	30	23	f	swets	36	2	son	2	183.0	NA
41	30	23	f	swets	36	2	of	3	168.0	NA
41	30	23	f	swets	36	2	the	4	202.0	NA
41	30	23	f	swets	36	2	saleswoman	5	182.0	NA
41	30	23	f	swets	36	2	who	6	451.0	NA
41	30	23	f	swets	36	2	talked	7	232.0	NA
41	30	23	f	swets	36	2	to	8	382.0	NA
41	30	23	f	swets	36	2	herself	9	270.0	NA
41	30	23	f	swets	36	2	all	10	281.0	NA
41	30	23	f	swets	36	2	the	11	316.0	NA
41	30	23	f	swets	36	2	time	12	417.0	NA
41	30	23	f	swets	36	2	walked	13	268.0	NA
41	30	23	f	swets	36	2	into	14	299.0	NA
41	30	23	f	swets	36	2	the	15	219.0	NA
41	30	23	f	swets	36	2	room.	16	300.0	NA
41	30	23	f	Question	36	2	NA	NA	910.0	1
42	30	23	f	Filler	102	5	The	1	279.0	NA
42	30	23	f	Filler	102	5	old	2	200.0	NA
42	30	23	f	Filler	102	5	man	3	134.0	NA
42	30	23	f	Filler	102	5	appeared	4	199.0	NA
42	30	23	f	Filler	102	5	to	5	152.0	NA
42	30	23	f	Filler	102	5	be	6	232.0	NA
42	30	23	f	Filler	102	5	upset	7	185.0	NA
42	30	23	f	Filler	102	5	by	8	201.0	NA
42	30	23	f	Filler	102	5	the	9	317.0	NA
42	30	23	f	Filler	102	5	teenager's	10	267.0	NA
42	30	23	f	Filler	102	5	ignorant	11	366.0	NA
42	30	23	f	Filler	102	5	remark.	12	250.0	NA
42	30	23	f	Question	102	5	NA	NA	1476.0	1
43	30	23	f	Filler	108	5	The	1	228.0	NA
43	30	23	f	Filler	108	5	museum	2	170.0	NA
43	30	23	f	Filler	108	5	wing	3	117.0	NA
43	30	23	f	Filler	108	5	which	4	283.0	NA
43	30	23	f	Filler	108	5	housed	5	1216.0	NA
43	30	23	f	Filler	108	5	all	6	251.0	NA
43	30	23	f	Filler	108	5	the	7	233.0	NA
43	30	23	f	Filler	108	5	Picasso	8	283.0	NA
43	30	23	f	Filler	108	5	paintings	9	383.0	NA
43	30	23	f	Filler	108	5	was	10	383.0	NA
43	30	23	f	Filler	108	5	very	11	333.0	NA
43	30	23	f	Filler	108	5	crowded.	12	370.0	NA
43	30	23	f	Question	108	5	NA	NA	1042.0	1
44	30	23	f	Filler	142	7	The	1	326.0	NA
44	30	23	f	Filler	142	7	cats	2	218.0	NA
44	30	23	f	Filler	142	7	and	3	232.0	NA
44	30	23	f	Filler	142	7	dogs	4	199.0	NA
44	30	23	f	Filler	142	7	glared	5	219.0	NA
44	30	23	f	Filler	142	7	at	6	316.0	NA
44	30	23	f	Filler	142	7	each	7	301.0	NA
44	30	23	f	Filler	142	7	other	8	318.0	NA
44	30	23	f	Filler	142	7	warily.	9	285.0	NA
44	30	23	f	Question	142	7	NA	NA	1492.0	1
45	30	23	f	swets	3	2	The	1	296.0	NA
45	30	23	f	swets	3	2	secretary	2	182.0	NA
45	30	23	f	swets	3	2	of	3	285.0	NA
45	30	23	f	swets	3	2	the	4	251.0	NA
45	30	23	f	swets	3	2	salesman	5	250.0	NA
45	30	23	f	swets	3	2	who	6	315.0	NA
45	30	23	f	swets	3	2	amused	7	519.0	NA
45	30	23	f	swets	3	2	himself	8	350.0	NA
45	30	23	f	swets	3	2	quite	9	300.0	NA
45	30	23	f	swets	3	2	a	10	316.0	NA
45	30	23	f	swets	3	2	bit	11	350.0	NA
45	30	23	f	swets	3	2	was	12	333.0	NA
45	30	23	f	swets	3	2	writing	13	401.0	NA
45	30	23	f	swets	3	2	a	14	384.0	NA
45	30	23	f	swets	3	2	letter	15	385.0	NA
45	30	23	f	swets	3	2	to	16	535.0	NA
45	30	23	f	swets	3	2	the	17	413.0	NA
45	30	23	f	swets	3	2	editor.	18	486.0	NA
45	30	23	f	Question	3	2	NA	NA	1272.0	1
46	30	23	f	Filler	98	5	The	1	328.0	NA
46	30	23	f	Filler	98	5	husband	2	216.0	NA
46	30	23	f	Filler	98	5	of	3	252.0	NA
46	30	23	f	Filler	98	5	the	4	300.0	NA
46	30	23	f	Filler	98	5	bestselling	5	198.0	NA
46	30	23	f	Filler	98	5	novelist	6	483.0	NA
46	30	23	f	Filler	98	5	was	7	352.0	NA
46	30	23	f	Filler	98	5	into	8	250.0	NA
46	30	23	f	Filler	98	5	collecting	9	182.0	NA
46	30	23	f	Filler	98	5	antiques.	10	317.0	NA
46	30	23	f	Question	98	5	NA	NA	1046.0	1
47	30	23	f	Filler	117	6	While	1	30.0	NA
47	30	23	f	Filler	117	6	Mike	2	266.0	NA
47	30	23	f	Filler	117	6	coughed	3	567.0	NA
47	30	23	f	Filler	117	6	Janet	4	317.0	NA
47	30	23	f	Filler	117	6	went	5	515.0	NA
47	30	23	f	Filler	117	6	out	6	216.0	NA
47	30	23	f	Filler	117	6	to	7	235.0	NA
47	30	23	f	Filler	117	6	get	8	284.0	NA
47	30	23	f	Filler	117	6	some	9	271.0	NA
47	30	23	f	Filler	117	6	cough	10	297.0	NA
47	30	23	f	Filler	117	6	medicine.	11	334.0	NA
47	30	23	f	Question	117	6	NA	NA	1979.0	1
48	30	23	f	swets	14	1	The	1	346.0	NA
48	30	23	f	swets	14	1	mother	2	419.0	NA
48	30	23	f	swets	14	1	of	3	265.0	NA
48	30	23	f	swets	14	1	the	4	318.0	NA
48	30	23	f	swets	14	1	nurse	5	400.0	NA
48	30	23	f	swets	14	1	who	6	217.0	NA
48	30	23	f	swets	14	1	injured	7	219.0	NA
48	30	23	f	swets	14	1	herself	8	198.0	NA
48	30	23	f	swets	14	1	last	9	335.0	NA
48	30	23	f	swets	14	1	summer	10	234.0	NA
48	30	23	f	swets	14	1	had	11	283.0	NA
48	30	23	f	swets	14	1	lived	12	233.0	NA
48	30	23	f	swets	14	1	in	13	332.0	NA
48	30	23	f	swets	14	1	Wales.	14	268.0	NA
48	30	23	f	Question	14	1	NA	NA	916.0	1
49	30	23	f	Filler	96	5	The	1	179.0	NA
49	30	23	f	Filler	96	5	evil	2	281.0	NA
49	30	23	f	Filler	96	5	man	3	236.0	NA
49	30	23	f	Filler	96	5	watched	4	297.0	NA
49	30	23	f	Filler	96	5	the	5	237.0	NA
49	30	23	f	Filler	96	5	doorway	6	315.0	NA
49	30	23	f	Filler	96	5	of	7	317.0	NA
49	30	23	f	Filler	96	5	the	8	202.0	NA
49	30	23	f	Filler	96	5	bar	9	266.0	NA
49	30	23	f	Filler	96	5	every	10	219.0	NA
49	30	23	f	Filler	96	5	Friday	11	233.0	NA
49	30	23	f	Filler	96	5	night.	12	299.0	NA
49	30	23	f	Question	96	5	NA	NA	1079.0	1
50	30	23	f	Filler	37	4	The	1	296.0	NA
50	30	23	f	Filler	37	4	party	2	214.0	NA
50	30	23	f	Filler	37	4	attracted	3	186.0	NA
50	30	23	f	Filler	37	4	the	4	251.0	NA
50	30	23	f	Filler	37	4	fraternity	5	201.0	NA
50	30	23	f	Filler	37	4	members	6	183.0	NA
50	30	23	f	Filler	37	4	whose	7	349.0	NA
50	30	23	f	Filler	37	4	house	8	368.0	NA
50	30	23	f	Filler	37	4	had	9	400.0	NA
50	30	23	f	Filler	37	4	been	10	266.0	NA
50	30	23	f	Filler	37	4	seized	11	285.0	NA
50	30	23	f	Filler	37	4	by	12	366.0	NA
50	30	23	f	Filler	37	4	drug	13	282.0	NA
50	30	23	f	Filler	37	4	agents.	14	317.0	NA
50	30	23	f	Question	37	4	NA	NA	1794.0	1
51	30	23	f	Filler	68	4	The	1	612.0	NA
51	30	23	f	Filler	68	4	scientist	2	315.0	NA
51	30	23	f	Filler	68	4	published	3	551.0	NA
51	30	23	f	Filler	68	4	a	4	419.0	NA
51	30	23	f	Filler	68	4	paper	5	266.0	NA
51	30	23	f	Filler	68	4	in	6	403.0	NA
51	30	23	f	Filler	68	4	the	7	282.0	NA
51	30	23	f	Filler	68	4	journal	8	232.0	NA
51	30	23	f	Filler	68	4	of	9	351.0	NA
51	30	23	f	Filler	68	4	the	10	234.0	NA
51	30	23	f	Filler	68	4	foreign	11	266.0	NA
51	30	23	f	Filler	68	4	organization.	12	268.0	NA
51	30	23	f	Question	68	4	NA	NA	1074.0	1
52	30	23	f	swets	21	2	The	1	213.0	NA
52	30	23	f	swets	21	2	wife	2	249.0	NA
52	30	23	f	swets	21	2	of	3	234.0	NA
52	30	23	f	swets	21	2	the	4	232.0	NA
52	30	23	f	swets	21	2	janitor	5	201.0	NA
52	30	23	f	swets	21	2	who	6	249.0	NA
52	30	23	f	swets	21	2	educated	7	233.0	NA
52	30	23	f	swets	21	2	himself	8	252.0	NA
52	30	23	f	swets	21	2	at	9	266.0	NA
52	30	23	f	swets	21	2	night	10	233.0	NA
52	30	23	f	swets	21	2	loved	11	284.0	NA
52	30	23	f	swets	21	2	going	12	351.0	NA
52	30	23	f	swets	21	2	to	13	384.0	NA
52	30	23	f	swets	21	2	the	14	383.0	NA
52	30	23	f	swets	21	2	theatre.	15	467.0	NA
52	30	23	f	Question	21	2	NA	NA	1040.0	1
53	30	23	f	Filler	126	6	The	1	263.0	NA
53	30	23	f	Filler	126	6	boxes	2	285.0	NA
53	30	23	f	Filler	126	6	and	3	248.0	NA
53	30	23	f	Filler	126	6	hangers	4	217.0	NA
53	30	23	f	Filler	126	6	had	5	533.0	NA
53	30	23	f	Filler	126	6	been	6	283.0	NA
53	30	23	f	Filler	126	6	stuffed	7	250.0	NA
53	30	23	f	Filler	126	6	in	8	352.0	NA
53	30	23	f	Filler	126	6	the	9	267.0	NA
53	30	23	f	Filler	126	6	closet.	10	315.0	NA
53	30	23	f	Question	126	6	NA	NA	1530.0	1
54	30	23	f	Filler	131	7	While	1	179.0	NA
54	30	23	f	Filler	131	7	Jamie	2	617.0	NA
54	30	23	f	Filler	131	7	dried	3	299.0	NA
54	30	23	f	Filler	131	7	off	4	350.0	NA
54	30	23	f	Filler	131	7	the	5	301.0	NA
54	30	23	f	Filler	131	7	table	6	248.0	NA
54	30	23	f	Filler	131	7	his	7	269.0	NA
54	30	23	f	Filler	131	7	sunglasses	8	382.0	NA
54	30	23	f	Filler	131	7	disappeared.	9	218.0	NA
54	30	23	f	Question	131	7	NA	NA	1110.0	1
55	30	23	f	Filler	107	5	The	1	95.0	NA
55	30	23	f	Filler	107	5	citizens	2	299.0	NA
55	30	23	f	Filler	107	5	were	3	351.0	NA
55	30	23	f	Filler	107	5	dissatisfied	4	265.0	NA
55	30	23	f	Filler	107	5	with	5	184.0	NA
55	30	23	f	Filler	107	5	the	6	350.0	NA
55	30	23	f	Filler	107	5	mayor	7	268.0	NA
55	30	23	f	Filler	107	5	of	8	235.0	NA
55	30	23	f	Filler	107	5	town	9	233.0	NA
55	30	23	f	Filler	107	5	because	10	199.0	NA
55	30	23	f	Filler	107	5	he	11	452.0	NA
55	30	23	f	Filler	107	5	had	12	415.0	NA
55	30	23	f	Filler	107	5	little	13	568.0	NA
55	30	23	f	Filler	107	5	experience.	14	534.0	NA
55	30	23	f	Question	107	5	NA	NA	826.0	1
56	30	23	f	Filler	60	4	The	1	144.0	NA
56	30	23	f	Filler	60	4	newlyweds	2	217.0	NA
56	30	23	f	Filler	60	4	were	3	367.0	NA
56	30	23	f	Filler	60	4	nervous	4	200.0	NA
56	30	23	f	Filler	60	4	about	5	185.0	NA
56	30	23	f	Filler	60	4	their	6	348.0	NA
56	30	23	f	Filler	60	4	new	7	200.0	NA
56	30	23	f	Filler	60	4	life	8	336.0	NA
56	30	23	f	Filler	60	4	together.	9	382.0	NA
56	30	23	f	Question	60	4	NA	NA	1244.0	1
57	30	23	f	swets	11	1	The	1	377.0	NA
57	30	23	f	swets	11	1	father	2	251.0	NA
57	30	23	f	swets	11	1	of	3	466.0	NA
57	30	23	f	swets	11	1	the	4	300.0	NA
57	30	23	f	swets	11	1	surgeon	5	302.0	NA
57	30	23	f	swets	11	1	who	6	351.0	NA
57	30	23	f	swets	11	1	made	7	300.0	NA
57	30	23	f	swets	11	1	a	8	333.0	NA
57	30	23	f	swets	11	1	fool	9	335.0	NA
57	30	23	f	swets	11	1	of	10	384.0	NA
57	30	23	f	swets	11	1	himself	11	299.0	NA
57	30	23	f	swets	11	1	at	12	300.0	NA
57	30	23	f	swets	11	1	the	13	250.0	NA
57	30	23	f	swets	11	1	party	14	201.0	NA
57	30	23	f	swets	11	1	was	15	315.0	NA
57	30	23	f	swets	11	1	greatly	16	301.0	NA
57	30	23	f	swets	11	1	embarrassed.	17	483.0	NA
57	30	23	f	Question	11	1	NA	NA	778.0	1
58	30	23	f	Filler	41	4	While	1	312.0	NA
58	30	23	f	Filler	41	4	the	2	234.0	NA
58	30	23	f	Filler	41	4	babysitter	3	285.0	NA
58	30	23	f	Filler	41	4	watched	4	313.0	NA
58	30	23	f	Filler	41	4	soap	5	284.0	NA
58	30	23	f	Filler	41	4	operas	6	268.0	NA
58	30	23	f	Filler	41	4	the	7	316.0	NA
58	30	23	f	Filler	41	4	child	8	251.0	NA
58	30	23	f	Filler	41	4	poured	9	284.0	NA
58	30	23	f	Filler	41	4	honey	10	382.0	NA
58	30	23	f	Filler	41	4	all	11	283.0	NA
58	30	23	f	Filler	41	4	over	12	269.0	NA
58	30	23	f	Filler	41	4	the	13	299.0	NA
58	30	23	f	Filler	41	4	floor.	14	334.0	NA
58	30	23	f	Question	41	4	NA	NA	1008.0	1
59	30	23	f	Filler	40	4	The	1	198.0	NA
59	30	23	f	Filler	40	4	boy's	2	331.0	NA
59	30	23	f	Filler	40	4	mother	3	202.0	NA
59	30	23	f	Filler	40	4	was	4	232.0	NA
59	30	23	f	Filler	40	4	very	5	250.0	NA
59	30	23	f	Filler	40	4	happy	6	368.0	NA
59	30	23	f	Filler	40	4	to	7	217.0	NA
59	30	23	f	Filler	40	4	see	8	250.0	NA
59	30	23	f	Filler	40	4	good	9	183.0	NA
59	30	23	f	Filler	40	4	grades	10	284.0	NA
59	30	23	f	Filler	40	4	on	11	268.0	NA
59	30	23	f	Filler	40	4	his	12	349.0	NA
59	30	23	f	Filler	40	4	report	13	299.0	NA
59	30	23	f	Filler	40	4	card.	14	316.0	NA
59	30	23	f	Question	40	4	NA	NA	645.0	1
60	30	23	f	Filler	67	4	The	1	311.0	NA
60	30	23	f	Filler	67	4	restaurant	2	268.0	NA
60	30	23	f	Filler	67	4	was	3	233.0	NA
60	30	23	f	Filler	67	4	famous	4	235.0	NA
60	30	23	f	Filler	67	4	for	5	249.0	NA
60	30	23	f	Filler	67	4	its	6	250.0	NA
60	30	23	f	Filler	67	4	French	7	233.0	NA
60	30	23	f	Filler	67	4	pastries	8	350.0	NA
60	30	23	f	Filler	67	4	and	9	235.0	NA
60	30	23	f	Filler	67	4	fine	10	234.0	NA
60	30	23	f	Filler	67	4	wines.	11	334.0	NA
60	30	23	f	Question	67	4	NA	NA	1556.0	1
61	30	23	f	Filler	86	5	The	1	296.0	NA
61	30	23	f	Filler	86	5	family's	2	233.0	NA
61	30	23	f	Filler	86	5	television	3	266.0	NA
61	30	23	f	Filler	86	5	stopped	4	335.0	NA
61	30	23	f	Filler	86	5	working	5	399.0	NA
61	30	23	f	Filler	86	5	two	6	250.0	NA
61	30	23	f	Filler	86	5	days	7	251.0	NA
61	30	23	f	Filler	86	5	after	8	217.0	NA
61	30	23	f	Filler	86	5	the	9	284.0	NA
61	30	23	f	Filler	86	5	warranty	10	264.0	NA
61	30	23	f	Filler	86	5	expired.	11	251.0	NA
61	30	23	f	Question	86	5	NA	NA	2294.0	1
62	30	23	f	swets	7	3	The	1	296.0	NA
62	30	23	f	swets	7	3	nephew	2	199.0	NA
62	30	23	f	swets	7	3	of	3	284.0	NA
62	30	23	f	swets	7	3	the	4	199.0	NA
62	30	23	f	swets	7	3	waitress	5	233.0	NA
62	30	23	f	swets	7	3	who	6	268.0	NA
62	30	23	f	swets	7	3	hurt	7	216.0	NA
62	30	23	f	swets	7	3	himself	8	236.0	NA
62	30	23	f	swets	7	3	on	9	231.0	NA
62	30	23	f	swets	7	3	the	10	257.0	NA
62	30	23	f	swets	7	3	bicycle	11	194.0	NA
62	30	23	f	swets	7	3	was	12	233.0	NA
62	30	23	f	swets	7	3	angry	13	282.0	NA
62	30	23	f	swets	7	3	about	14	235.0	NA
62	30	23	f	swets	7	3	the	15	251.0	NA
62	30	23	f	swets	7	3	incident.	16	249.0	NA
62	30	23	f	Question	7	3	NA	NA	709.0	1
63	30	23	f	Filler	66	4	The	1	277.0	NA
63	30	23	f	Filler	66	4	rare	2	218.0	NA
63	30	23	f	Filler	66	4	and	3	248.0	NA
63	30	23	f	Filler	66	4	exotic	4	302.0	NA
63	30	23	f	Filler	66	4	monkey	5	251.0	NA
63	30	23	f	Filler	66	4	was	6	250.0	NA
63	30	23	f	Filler	66	4	the	7	733.0	NA
63	30	23	f	Filler	66	4	center	8	350.0	NA
63	30	23	f	Filler	66	4	of	9	300.0	NA
63	30	23	f	Filler	66	4	attention	10	251.0	NA
63	30	23	f	Filler	66	4	at	11	367.0	NA
63	30	23	f	Filler	66	4	the	12	268.0	NA
63	30	23	f	Filler	66	4	zoo.	13	265.0	NA
63	30	23	f	Question	66	4	NA	NA	1711.0	1
64	30	23	f	Filler	120	6	Sarah	1	314.0	NA
64	30	23	f	Filler	120	6	won't	2	283.0	NA
64	30	23	f	Filler	120	6	reveal	3	317.0	NA
64	30	23	f	Filler	120	6	which	4	334.0	NA
64	30	23	f	Filler	120	6	race	5	298.0	NA
64	30	23	f	Filler	120	6	she	6	301.0	NA
64	30	23	f	Filler	120	6	won	7	301.0	NA
64	30	23	f	Filler	120	6	without	8	300.0	NA
64	30	23	f	Filler	120	6	entering	9	349.0	NA
64	30	23	f	Filler	120	6	the	10	383.0	NA
64	30	23	f	Filler	120	6	competition	11	385.0	NA
64	30	23	f	Filler	120	6	for	12	368.0	NA
64	30	23	f	Filler	120	6	officially.	13	468.0	NA
64	30	23	f	Question	120	6	NA	NA	1342.0	1
65	30	23	f	swets	28	3	The	1	462.0	NA
65	30	23	f	swets	28	3	nephew	2	282.0	NA
65	30	23	f	swets	28	3	of	3	518.0	NA
65	30	23	f	swets	28	3	the	4	384.0	NA
65	30	23	f	swets	28	3	baroness	5	585.0	NA
65	30	23	f	swets	28	3	who	6	417.0	NA
65	30	23	f	swets	28	3	admired	7	234.0	NA
65	30	23	f	swets	28	3	himself	8	265.0	NA
65	30	23	f	swets	28	3	an	9	269.0	NA
65	30	23	f	swets	28	3	inordinate	10	300.0	NA
65	30	23	f	swets	28	3	amount	11	518.0	NA
65	30	23	f	swets	28	3	enjoyed	12	349.0	NA
65	30	23	f	swets	28	3	all	13	334.0	NA
65	30	23	f	swets	28	3	the	14	284.0	NA
65	30	23	f	swets	28	3	attention.	15	368.0	NA
65	30	23	f	Question	28	3	NA	NA	1807.0	1
66	30	23	f	Filler	128	7	While	1	244.0	NA
66	30	23	f	Filler	128	7	the	2	350.0	NA
66	30	23	f	Filler	128	7	man	3	216.0	NA
66	30	23	f	Filler	128	7	was	4	220.0	NA
66	30	23	f	Filler	128	7	walking	5	199.0	NA
66	30	23	f	Filler	128	7	the	6	284.0	NA
66	30	23	f	Filler	128	7	poodle	7	200.0	NA
66	30	23	f	Filler	128	7	barked	8	267.0	NA
66	30	23	f	Filler	128	7	loudly.	9	251.0	NA
66	30	23	f	Question	128	7	NA	NA	927.0	1
67	30	23	f	Filler	47	4	The	1	245.0	NA
67	30	23	f	Filler	47	4	boys	2	265.0	NA
67	30	23	f	Filler	47	4	all	3	237.0	NA
67	30	23	f	Filler	47	4	admired	4	299.0	NA
67	30	23	f	Filler	47	4	the	5	601.0	NA
67	30	23	f	Filler	47	4	singer	6	266.0	NA
67	30	23	f	Filler	47	4	of	7	234.0	NA
67	30	23	f	Filler	47	4	the	8	233.0	NA
67	30	23	f	Filler	47	4	song	9	251.0	NA
67	30	23	f	Filler	47	4	with	10	250.0	NA
67	30	23	f	Filler	47	4	the	11	282.0	NA
67	30	23	f	Filler	47	4	long	12	299.0	NA
67	30	23	f	Filler	47	4	eyelashes.	13	269.0	NA
67	30	23	f	Question	47	4	NA	NA	1243.0	1
68	30	23	f	Filler	63	4	The	1	376.0	NA
68	30	23	f	Filler	63	4	bride	2	500.0	NA
68	30	23	f	Filler	63	4	was	3	520.0	NA
68	30	23	f	Filler	63	4	devastated	4	265.0	NA
68	30	23	f	Filler	63	4	to	5	701.0	NA
68	30	23	f	Filler	63	4	lose	6	167.0	NA
68	30	23	f	Filler	63	4	her	7	318.0	NA
68	30	23	f	Filler	63	4	gold	8	349.0	NA
68	30	23	f	Filler	63	4	ring	9	417.0	NA
68	30	23	f	Filler	63	4	with	10	384.0	NA
68	30	23	f	Filler	63	4	a	11	217.0	NA
68	30	23	f	Filler	63	4	gleaming	12	349.0	NA
68	30	23	f	Filler	63	4	diamond	13	333.0	NA
68	30	23	f	Filler	63	4	in	14	384.0	NA
68	30	23	f	Filler	63	4	the	15	384.0	NA
68	30	23	f	Filler	63	4	middle.	16	332.0	NA
68	30	23	f	Question	63	4	NA	NA	978.0	1
69	30	23	f	Filler	69	4	The	1	245.0	NA
69	30	23	f	Filler	69	4	tiny	2	268.0	NA
69	30	23	f	Filler	69	4	child	3	300.0	NA
69	30	23	f	Filler	69	4	rolled	4	298.0	NA
69	30	23	f	Filler	69	4	the	5	319.0	NA
69	30	23	f	Filler	69	4	piece	6	232.0	NA
69	30	23	f	Filler	69	4	of	7	301.0	NA
69	30	23	f	Filler	69	4	the	8	285.0	NA
69	30	23	f	Filler	69	4	toy	9	234.0	NA
69	30	23	f	Filler	69	4	into	10	265.0	NA
69	30	23	f	Filler	69	4	the	11	216.0	NA
69	30	23	f	Filler	69	4	next	12	418.0	NA
69	30	23	f	Filler	69	4	room	13	283.0	NA
69	30	23	f	Filler	69	4	after	14	384.0	NA
69	30	23	f	Filler	69	4	it	15	266.0	NA
69	30	23	f	Filler	69	4	broke	16	233.0	NA
69	30	23	f	Filler	69	4	off.	17	316.0	NA
69	30	23	f	Question	69	4	NA	NA	776.0	1
70	30	23	f	swets	25	3	The	1	445.0	NA
70	30	23	f	swets	25	3	grandfather	2	217.0	NA
70	30	23	f	swets	25	3	of	3	350.0	NA
70	30	23	f	swets	25	3	the	4	467.0	NA
70	30	23	f	swets	25	3	stewardess	5	268.0	NA
70	30	23	f	swets	25	3	who	6	417.0	NA
70	30	23	f	swets	25	3	treated	7	684.0	NA
70	30	23	f	swets	25	3	himself	8	315.0	NA
70	30	23	f	swets	25	3	to	9	453.0	NA
70	30	23	f	swets	25	3	an	10	333.0	NA
70	30	23	f	swets	25	3	ice-cream	11	251.0	NA
70	30	23	f	swets	25	3	cone	12	318.0	NA
70	30	23	f	swets	25	3	was	13	331.0	NA
70	30	23	f	swets	25	3	waiting	14	283.0	NA
70	30	23	f	swets	25	3	at	15	301.0	NA
70	30	23	f	swets	25	3	home.	16	251.0	NA
70	30	23	f	Question	25	3	NA	NA	1108.0	1
71	30	23	f	Filler	89	5	Jim	1	328.0	NA
71	30	23	f	Filler	89	5	watered	2	218.0	NA
71	30	23	f	Filler	89	5	the	3	266.0	NA
71	30	23	f	Filler	89	5	tropical	4	283.0	NA
71	30	23	f	Filler	89	5	plants	5	249.0	NA
71	30	23	f	Filler	89	5	of	6	202.0	NA
71	30	23	f	Filler	89	5	his	7	316.0	NA
71	30	23	f	Filler	89	5	neighbor	8	250.0	NA
71	30	23	f	Filler	89	5	because	9	333.0	NA
71	30	23	f	Filler	89	5	she	10	251.0	NA
71	30	23	f	Filler	89	5	had	11	233.0	NA
71	30	23	f	Filler	89	5	gone	12	335.0	NA
71	30	23	f	Filler	89	5	out	13	335.0	NA
71	30	23	f	Filler	89	5	of	14	247.0	NA
71	30	23	f	Filler	89	5	town	15	301.0	NA
71	30	23	f	Filler	89	5	for	16	267.0	NA
71	30	23	f	Filler	89	5	a	17	266.0	NA
71	30	23	f	Filler	89	5	few	18	250.0	NA
71	30	23	f	Filler	89	5	days.	19	266.0	NA
71	30	23	f	Question	89	5	NA	NA	1276.0	1
72	30	23	f	Filler	144	7	The	1	229.0	NA
72	30	23	f	Filler	144	7	apple	2	350.0	NA
72	30	23	f	Filler	144	7	and	3	349.0	NA
72	30	23	f	Filler	144	7	potato	4	215.0	NA
72	30	23	f	Filler	144	7	went	5	517.0	NA
72	30	23	f	Filler	144	7	rotten	6	300.0	NA
72	30	23	f	Filler	144	7	after	7	199.0	NA
72	30	23	f	Filler	144	7	a	8	285.0	NA
72	30	23	f	Filler	144	7	week.	9	265.0	NA
72	30	23	f	Question	144	7	NA	NA	813.0	1
73	30	23	f	Filler	113	6	While	1	196.0	NA
73	30	23	f	Filler	113	6	Noah	2	249.0	NA
73	30	23	f	Filler	113	6	was	3	366.0	NA
73	30	23	f	Filler	113	6	waking	4	301.0	NA
73	30	23	f	Filler	113	6	up	5	282.0	NA
73	30	23	f	Filler	113	6	the	6	417.0	NA
73	30	23	f	Filler	113	6	man	7	268.0	NA
73	30	23	f	Filler	113	6	the	8	250.0	NA
73	30	23	f	Filler	113	6	neighbor	9	335.0	NA
73	30	23	f	Filler	113	6	coughed	10	550.0	NA
73	30	23	f	Filler	113	6	loudly.	11	368.0	NA
73	30	23	f	Question	113	6	NA	NA	743.0	1
74	30	23	f	Filler	129	7	While	1	28.0	NA
74	30	23	f	Filler	129	7	Scott	2	235.0	NA
74	30	23	f	Filler	129	7	vacuumed	3	400.0	NA
74	30	23	f	Filler	129	7	the	4	252.0	NA
74	30	23	f	Filler	129	7	carpet	5	231.0	NA
74	30	23	f	Filler	129	7	the	6	185.0	NA
74	30	23	f	Filler	129	7	drapes	7	283.0	NA
74	30	23	f	Filler	129	7	flapped	8	182.0	NA
74	30	23	f	Filler	129	7	in	9	251.0	NA
74	30	23	f	Filler	129	7	the	10	265.0	NA
74	30	23	f	Filler	129	7	breeze.	11	235.0	NA
74	30	23	f	Question	129	7	NA	NA	876.0	1
75	30	23	f	swets	33	2	The	1	297.0	NA
75	30	23	f	swets	33	2	maid	2	150.0	NA
75	30	23	f	swets	33	2	of	3	218.0	NA
75	30	23	f	swets	33	2	the	4	182.0	NA
75	30	23	f	swets	33	2	actor	5	151.0	NA
75	30	23	f	swets	33	2	who	6	199.0	NA
75	30	23	f	swets	33	2	did	7	201.0	NA
75	30	23	f	swets	33	2	not	8	549.0	NA
75	30	23	f	swets	33	2	like	9	332.0	NA
75	30	23	f	swets	33	2	himself	10	168.0	NA
75	30	23	f	swets	33	2	very	11	200.0	NA
75	30	23	f	swets	33	2	much	12	516.0	NA
75	30	23	f	swets	33	2	caught	13	232.0	NA
75	30	23	f	swets	33	2	the	14	268.0	NA
75	30	23	f	swets	33	2	armed	15	287.0	NA
75	30	23	f	swets	33	2	robber.	16	316.0	NA
75	30	23	f	Question	33	2	NA	NA	1381.0	1
76	30	23	f	Filler	84	5	While	1	380.0	NA
76	30	23	f	Filler	84	5	talking	2	300.0	NA
76	30	23	f	Filler	84	5	to	3	217.0	NA
76	30	23	f	Filler	84	5	his	4	219.0	NA
76	30	23	f	Filler	84	5	sister	5	199.0	NA
76	30	23	f	Filler	84	5	the	6	184.0	NA
76	30	23	f	Filler	84	5	bishop	7	132.0	NA
76	30	23	f	Filler	84	5	with	8	201.0	NA
76	30	23	f	Filler	84	5	the	9	198.0	NA
76	30	23	f	Filler	84	5	funny	10	202.0	NA
76	30	23	f	Filler	84	5	eyebrows	11	533.0	NA
76	30	23	f	Filler	84	5	advocated	12	434.0	NA
76	30	23	f	Filler	84	5	strange	13	416.0	NA
76	30	23	f	Filler	84	5	beliefs.	14	334.0	NA
76	30	23	f	Question	84	5	NA	NA	2111.0	0
77	30	23	f	Filler	73	5	My	1	380.0	NA
77	30	23	f	Filler	73	5	cousins	2	249.0	NA
77	30	23	f	Filler	73	5	admired	3	282.0	NA
77	30	23	f	Filler	73	5	the	4	469.0	NA
77	30	23	f	Filler	73	5	singer	5	348.0	NA
77	30	23	f	Filler	73	5	although	6	252.0	NA
77	30	23	f	Filler	73	5	she	7	300.0	NA
77	30	23	f	Filler	73	5	never	8	248.0	NA
77	30	23	f	Filler	73	5	became	9	250.0	NA
77	30	23	f	Filler	73	5	popular.	10	168.0	NA
77	30	23	f	Question	73	5	NA	NA	2209.0	1
78	30	23	f	Filler	91	5	The	1	279.0	NA
78	30	23	f	Filler	91	5	workman	2	266.0	NA
78	30	23	f	Filler	91	5	dropped	3	200.0	NA
78	30	23	f	Filler	91	5	the	4	282.0	NA
78	30	23	f	Filler	91	5	assistant	5	200.0	NA
78	30	23	f	Filler	91	5	who	6	218.0	NA
78	30	23	f	Filler	91	5	complained	7	201.0	NA
78	30	23	f	Filler	91	5	bitterly	8	400.0	NA
78	30	23	f	Filler	91	5	onto	9	266.0	NA
78	30	23	f	Filler	91	5	a	10	349.0	NA
78	30	23	f	Filler	91	5	lower	11	317.0	NA
78	30	23	f	Filler	91	5	floor.	12	233.0	NA
78	30	23	f	Question	91	5	NA	NA	1076.0	1
79	30	23	f	swets	16	3	The	1	346.0	NA
79	30	23	f	swets	16	3	widow	2	416.0	NA
79	30	23	f	swets	16	3	of	3	483.0	NA
79	30	23	f	swets	16	3	the	4	201.0	NA
79	30	23	f	swets	16	3	general	5	567.0	NA
79	30	23	f	swets	16	3	who	6	319.0	NA
79	30	23	f	swets	16	3	sacrificed	7	250.0	NA
79	30	23	f	swets	16	3	herself	8	567.0	NA
79	30	23	f	swets	16	3	for	9	466.0	NA
79	30	23	f	swets	16	3	the	10	300.0	NA
79	30	23	f	swets	16	3	cause	11	234.0	NA
79	30	23	f	swets	16	3	was	12	284.0	NA
79	30	23	f	swets	16	3	the	13	282.0	NA
79	30	23	f	swets	16	3	subject	14	267.0	NA
79	30	23	f	swets	16	3	of	15	300.0	NA
79	30	23	f	swets	16	3	the	16	285.0	NA
79	30	23	f	swets	16	3	biography.	17	334.0	NA
79	30	23	f	Question	16	3	NA	NA	1308.0	1
80	30	23	f	Filler	79	5	Although	1	247.0	NA
80	30	23	f	Filler	79	5	the	2	233.0	NA
80	30	23	f	Filler	79	5	mechanic	3	482.0	NA
80	30	23	f	Filler	79	5	said	4	233.0	NA
80	30	23	f	Filler	79	5	the	5	184.0	NA
80	30	23	f	Filler	79	5	job	6	133.0	NA
80	30	23	f	Filler	79	5	would	7	302.0	NA
80	30	23	f	Filler	79	5	take	8	134.0	NA
80	30	23	f	Filler	79	5	four	9	133.0	NA
80	30	23	f	Filler	79	5	days	10	300.0	NA
80	30	23	f	Filler	79	5	the	11	152.0	NA
80	30	23	f	Filler	79	5	client	12	348.0	NA
80	30	23	f	Filler	79	5	didn't	13	151.0	NA
80	30	23	f	Filler	79	5	receive	14	384.0	NA
80	30	23	f	Filler	79	5	her	15	168.0	NA
80	30	23	f	Filler	79	5	car	16	400.0	NA
80	30	23	f	Filler	79	5	for	17	450.0	NA
80	30	23	f	Filler	79	5	six	18	417.0	NA
80	30	23	f	Filler	79	5	weeks.	19	485.0	NA
80	30	23	f	Question	79	5	NA	NA	1608.0	1
81	30	23	f	Filler	103	5	The	1	312.0	NA
81	30	23	f	Filler	103	5	desperate	2	253.0	NA
81	30	23	f	Filler	103	5	thief	3	118.0	NA
81	30	23	f	Filler	103	5	ran	4	166.0	NA
81	30	23	f	Filler	103	5	over	5	416.0	NA
81	30	23	f	Filler	103	5	a	6	618.0	NA
81	30	23	f	Filler	103	5	child	7	400.0	NA
81	30	23	f	Filler	103	5	in	8	266.0	NA
81	30	23	f	Filler	103	5	an	9	185.0	NA
81	30	23	f	Filler	103	5	attempt	10	183.0	NA
81	30	23	f	Filler	103	5	to	11	365.0	NA
81	30	23	f	Filler	103	5	dodge	12	184.0	NA
81	30	23	f	Filler	103	5	the	13	317.0	NA
81	30	23	f	Filler	103	5	cops.	14	200.0	NA
81	30	23	f	Question	103	5	NA	NA	1182.0	1
82	30	23	f	swets	8	1	The	1	263.0	NA
82	30	23	f	swets	8	1	sister	2	181.0	NA
82	30	23	f	swets	8	1	of	3	169.0	NA
82	30	23	f	swets	8	1	the	4	149.0	NA
82	30	23	f	swets	8	1	seamstress	5	117.0	NA
82	30	23	f	swets	8	1	who	6	268.0	NA
82	30	23	f	swets	8	1	entertained	7	197.0	NA
82	30	23	f	swets	8	1	herself	8	86.0	NA
82	30	23	f	swets	8	1	most	9	284.0	NA
82	30	23	f	swets	8	1	evenings	10	169.0	NA
82	30	23	f	swets	8	1	was	11	314.0	NA
82	30	23	f	swets	8	1	reading	12	184.0	NA
82	30	23	f	swets	8	1	a	13	118.0	NA
82	30	23	f	swets	8	1	book.	14	315.0	NA
82	30	23	f	Question	8	1	NA	NA	1210.0	1
83	30	23	f	Filler	95	5	The	1	129.0	NA
83	30	23	f	Filler	95	5	receptionist	2	200.0	NA
83	30	23	f	Filler	95	5	of	3	269.0	NA
83	30	23	f	Filler	95	5	the	4	182.0	NA
83	30	23	f	Filler	95	5	company	5	134.0	NA
83	30	23	f	Filler	95	5	went	6	383.0	NA
83	30	23	f	Filler	95	5	home	7	349.0	NA
83	30	23	f	Filler	95	5	sick	8	217.0	NA
83	30	23	f	Filler	95	5	before	9	183.0	NA
83	30	23	f	Filler	95	5	moving	10	202.0	NA
83	30	23	f	Filler	95	5	across	11	183.0	NA
83	30	23	f	Filler	95	5	town.	12	248.0	NA
83	30	23	f	Question	95	5	NA	NA	1096.0	1
84	30	23	f	swets	22	3	The	1	311.0	NA
84	30	23	f	swets	22	3	niece	2	201.0	NA
84	30	23	f	swets	22	3	of	3	149.0	NA
84	30	23	f	swets	22	3	the	4	182.0	NA
84	30	23	f	swets	22	3	commander	5	150.0	NA
84	30	23	f	swets	22	3	who	6	136.0	NA
84	30	23	f	swets	22	3	calmed	7	148.0	NA
84	30	23	f	swets	22	3	herself	8	152.0	NA
84	30	23	f	swets	22	3	after	9	383.0	NA
84	30	23	f	swets	22	3	the	10	416.0	NA
84	30	23	f	swets	22	3	tragedy	11	317.0	NA
84	30	23	f	swets	22	3	was	12	199.0	NA
84	30	23	f	swets	22	3	waiting	13	120.0	NA
84	30	23	f	swets	22	3	for	14	333.0	NA
84	30	23	f	swets	22	3	the	15	152.0	NA
84	30	23	f	swets	22	3	doctor.	16	331.0	NA
84	30	23	f	Question	22	3	NA	NA	893.0	1
85	30	23	f	Filler	123	6	The	1	311.0	NA
85	30	23	f	Filler	123	6	student	2	134.0	NA
85	30	23	f	Filler	123	6	and	3	183.0	NA
85	30	23	f	Filler	123	6	professor	4	133.0	NA
85	30	23	f	Filler	123	6	went	5	152.0	NA
85	30	23	f	Filler	123	6	for	6	184.0	NA
85	30	23	f	Filler	123	6	a	7	181.0	NA
85	30	23	f	Filler	123	6	walk	8	202.0	NA
85	30	23	f	Filler	123	6	last	9	216.0	NA
85	30	23	f	Filler	123	6	Tuesday.	10	202.0	NA
85	30	23	f	Question	123	6	NA	NA	1144.0	1
86	30	23	f	Filler	74	5	My	1	95.0	NA
86	30	23	f	Filler	74	5	former	2	535.0	NA
86	30	23	f	Filler	74	5	girlfriend	3	537.0	NA
86	30	23	f	Filler	74	5	criticized	4	199.0	NA
86	30	23	f	Filler	74	5	the	5	314.0	NA
86	30	23	f	Filler	74	5	author's	6	353.0	NA
86	30	23	f	Filler	74	5	agent	7	316.0	NA
86	30	23	f	Filler	74	5	because	8	317.0	NA
86	30	23	f	Filler	74	5	he	9	182.0	NA
86	30	23	f	Filler	74	5	had	10	134.0	NA
86	30	23	f	Filler	74	5	failed	11	135.0	NA
86	30	23	f	Filler	74	5	to	12	300.0	NA
86	30	23	f	Filler	74	5	meet	13	132.0	NA
86	30	23	f	Filler	74	5	a	14	367.0	NA
86	30	23	f	Filler	74	5	deadline.	15	468.0	NA
86	30	23	f	Question	74	5	NA	NA	1326.0	1
87	30	23	f	Filler	82	5	The	1	295.0	NA
87	30	23	f	Filler	82	5	patient's	2	200.0	NA
87	30	23	f	Filler	82	5	seizures	3	201.0	NA
87	30	23	f	Filler	82	5	appeared	4	100.0	NA
87	30	23	f	Filler	82	5	to	5	317.0	NA
87	30	23	f	Filler	82	5	have	6	315.0	NA
87	30	23	f	Filler	82	5	been	7	202.0	NA
87	30	23	f	Filler	82	5	eliminated	8	118.0	NA
87	30	23	f	Filler	82	5	by	9	383.0	NA
87	30	23	f	Filler	82	5	the	10	282.0	NA
87	30	23	f	Filler	82	5	surgery.	11	233.0	NA
87	30	23	f	Question	82	5	NA	NA	1428.0	1
88	30	23	f	Filler	93	5	The	1	160.0	NA
88	30	23	f	Filler	93	5	new	2	121.0	NA
88	30	23	f	Filler	93	5	book	3	366.0	NA
88	30	23	f	Filler	93	5	replaced	4	483.0	NA
88	30	23	f	Filler	93	5	the	5	101.0	NA
88	30	23	f	Filler	93	5	work	6	200.0	NA
88	30	23	f	Filler	93	5	of	7	216.0	NA
88	30	23	f	Filler	93	5	the	8	166.0	NA
88	30	23	f	Filler	93	5	leaders	9	150.0	NA
88	30	23	f	Filler	93	5	in	10	199.0	NA
88	30	23	f	Filler	93	5	the	11	219.0	NA
88	30	23	f	Filler	93	5	field	12	166.0	NA
88	30	23	f	Filler	93	5	of	13	348.0	NA
88	30	23	f	Filler	93	5	physical	14	170.0	NA
88	30	23	f	Filler	93	5	chemistry.	15	734.0	NA
88	30	23	f	Question	93	5	NA	NA	1077.0	1
89	30	23	f	Filler	119	6	Everybody	1	429.0	NA
89	30	23	f	Filler	119	6	is	2	334.0	NA
89	30	23	f	Filler	119	6	wondering	3	450.0	NA
89	30	23	f	Filler	119	6	which	4	249.0	NA
89	30	23	f	Filler	119	6	software	5	384.0	NA
89	30	23	f	Filler	119	6	Gary	6	320.0	NA
89	30	23	f	Filler	119	6	installed	7	416.0	NA
89	30	23	f	Filler	119	6	without	8	283.0	NA
89	30	23	f	Filler	119	6	buying	9	219.0	NA
89	30	23	f	Filler	119	6	last	10	283.0	NA
89	30	23	f	Filler	119	6	June.	11	315.0	NA
89	30	23	f	Question	119	6	NA	NA	1460.0	1
90	30	23	f	Filler	81	5	The	1	146.0	NA
90	30	23	f	Filler	81	5	stubborn	2	166.0	NA
90	30	23	f	Filler	81	5	old	3	366.0	NA
90	30	23	f	Filler	81	5	man	4	217.0	NA
90	30	23	f	Filler	81	5	criticized	5	167.0	NA
90	30	23	f	Filler	81	5	everything	6	68.0	NA
90	30	23	f	Filler	81	5	that	7	383.0	NA
90	30	23	f	Filler	81	5	the	8	182.0	NA
90	30	23	f	Filler	81	5	young	9	118.0	NA
90	30	23	f	Filler	81	5	student	10	400.0	NA
90	30	23	f	Filler	81	5	did.	11	315.0	NA
90	30	23	f	Question	81	5	NA	NA	980.0	1
91	30	23	f	Filler	57	4	The	1	494.0	NA
91	30	23	f	Filler	57	4	architect	2	251.0	NA
91	30	23	f	Filler	57	4	was	3	433.0	NA
91	30	23	f	Filler	57	4	embarrassed	4	333.0	NA
91	30	23	f	Filler	57	4	by	5	352.0	NA
91	30	23	f	Filler	57	4	the	6	231.0	NA
91	30	23	f	Filler	57	4	memo	7	335.0	NA
91	30	23	f	Filler	57	4	of	8	370.0	NA
91	30	23	f	Filler	57	4	the	9	349.0	NA
91	30	23	f	Filler	57	4	engineer	10	349.0	NA
91	30	23	f	Filler	57	4	because	11	400.0	NA
91	30	23	f	Filler	57	4	it	12	300.0	NA
91	30	23	f	Filler	57	4	said	13	283.0	NA
91	30	23	f	Filler	57	4	that	14	299.0	NA
91	30	23	f	Filler	57	4	his	15	250.0	NA
91	30	23	f	Filler	57	4	building	16	319.0	NA
91	30	23	f	Filler	57	4	would	17	350.0	NA
91	30	23	f	Filler	57	4	collapse.	18	334.0	NA
91	30	23	f	Question	57	4	NA	NA	1376.0	1
92	30	23	f	swets	35	1	The	1	63.0	NA
92	30	23	f	swets	35	1	landlord	2	182.0	NA
92	30	23	f	swets	35	1	of	3	368.0	NA
92	30	23	f	swets	35	1	the	4	332.0	NA
92	30	23	f	swets	35	1	businessman	5	468.0	NA
92	30	23	f	swets	35	1	who	6	332.0	NA
92	30	23	f	swets	35	1	had	7	251.0	NA
92	30	23	f	swets	35	1	locked	8	167.0	NA
92	30	23	f	swets	35	1	himself	9	317.0	NA
92	30	23	f	swets	35	1	in	10	317.0	NA
92	30	23	f	swets	35	1	the	11	316.0	NA
92	30	23	f	swets	35	1	office	12	249.0	NA
92	30	23	f	swets	35	1	received	13	201.0	NA
92	30	23	f	swets	35	1	a	14	184.0	NA
92	30	23	f	swets	35	1	phone	15	232.0	NA
92	30	23	f	swets	35	1	call.	16	300.0	NA
92	30	23	f	Question	35	1	NA	NA	1743.0	1
93	30	23	f	Filler	134	7	As	1	130.0	NA
93	30	23	f	Filler	134	7	Shawnie	2	183.0	NA
93	30	23	f	Filler	134	7	and	3	182.0	NA
93	30	23	f	Filler	134	7	Nick	4	636.0	NA
93	30	23	f	Filler	134	7	were	5	364.0	NA
93	30	23	f	Filler	134	7	embracing	6	236.0	NA
93	30	23	f	Filler	134	7	the	7	332.0	NA
93	30	23	f	Filler	134	7	doctor	8	418.0	NA
93	30	23	f	Filler	134	7	the	9	349.0	NA
93	30	23	f	Filler	134	7	visitor	10	519.0	NA
93	30	23	f	Filler	134	7	entered	11	684.0	NA
93	30	23	f	Filler	134	7	the	12	381.0	NA
93	30	23	f	Filler	134	7	room.	13	283.0	NA
93	30	23	f	Question	134	7	NA	NA	1191.0	1
94	30	23	f	Filler	94	5	After	1	346.0	NA
94	30	23	f	Filler	94	5	months	2	448.0	NA
94	30	23	f	Filler	94	5	of	3	368.0	NA
94	30	23	f	Filler	94	5	preparation	4	268.0	NA
94	30	23	f	Filler	94	5	the	5	348.0	NA
94	30	23	f	Filler	94	5	ballerina	6	318.0	NA
94	30	23	f	Filler	94	5	was	7	200.0	NA
94	30	23	f	Filler	94	5	getting	8	200.0	NA
94	30	23	f	Filler	94	5	ready	9	250.0	NA
94	30	23	f	Filler	94	5	for	10	248.0	NA
94	30	23	f	Filler	94	5	opening	11	269.0	NA
94	30	23	f	Filler	94	5	night.	12	384.0	NA
94	30	23	f	Question	94	5	NA	NA	814.0	1
95	30	23	f	Filler	92	5	The	1	345.0	NA
95	30	23	f	Filler	92	5	personal	2	301.0	NA
95	30	23	f	Filler	92	5	trainer	3	181.0	NA
95	30	23	f	Filler	92	5	was	4	268.0	NA
95	30	23	f	Filler	92	5	popular	5	451.0	NA
95	30	23	f	Filler	92	5	among	6	233.0	NA
95	30	23	f	Filler	92	5	athletes	7	253.0	NA
95	30	23	f	Filler	92	5	after	8	301.0	NA
95	30	23	f	Filler	92	5	he	9	283.0	NA
95	30	23	f	Filler	92	5	helped	10	234.0	NA
95	30	23	f	Filler	92	5	the	11	267.0	NA
95	30	23	f	Filler	92	5	bodybuilder	12	200.0	NA
95	30	23	f	Filler	92	5	win	13	398.0	NA
95	30	23	f	Filler	92	5	the	14	235.0	NA
95	30	23	f	Filler	92	5	competition.	15	367.0	NA
95	30	23	f	Question	92	5	NA	NA	1743.0	1
96	30	23	f	Filler	46	4	The	1	146.0	NA
96	30	23	f	Filler	46	4	preacher	2	332.0	NA
96	30	23	f	Filler	46	4	of	3	368.0	NA
96	30	23	f	Filler	46	4	the	4	249.0	NA
96	30	23	f	Filler	46	4	congregation	5	267.0	NA
96	30	23	f	Filler	46	4	had	6	484.0	NA
96	30	23	f	Filler	46	4	given	7	334.0	NA
96	30	23	f	Filler	46	4	a	8	232.0	NA
96	30	23	f	Filler	46	4	sermon	9	303.0	NA
96	30	23	f	Filler	46	4	at	10	284.0	NA
96	30	23	f	Filler	46	4	a	11	283.0	NA
96	30	23	f	Filler	46	4	local	12	265.0	NA
96	30	23	f	Filler	46	4	school.	13	301.0	NA
96	30	23	f	Question	46	4	NA	NA	1376.0	1
97	30	23	f	swets	9	2	The	1	311.0	NA
97	30	23	f	swets	9	2	father	2	287.0	NA
97	30	23	f	swets	9	2	of	3	231.0	NA
97	30	23	f	swets	9	2	the	4	203.0	NA
97	30	23	f	swets	9	2	schoolgirl	5	199.0	NA
97	30	23	f	swets	9	2	who	6	283.0	NA
97	30	23	f	swets	9	2	burned	7	234.0	NA
97	30	23	f	swets	9	2	herself	8	283.0	NA
97	30	23	f	swets	9	2	the	9	316.0	NA
97	30	23	f	swets	9	2	other	10	282.0	NA
97	30	23	f	swets	9	2	day	11	267.0	NA
97	30	23	f	swets	9	2	was	12	284.0	NA
97	30	23	f	swets	9	2	usually	13	318.0	NA
97	30	23	f	swets	9	2	very	14	366.0	NA
97	30	23	f	swets	9	2	careful.	15	303.0	NA
97	30	23	f	Question	9	2	NA	NA	1441.0	1
98	30	23	f	Filler	72	4	The	1	263.0	NA
98	30	23	f	Filler	72	4	secretaries	2	199.0	NA
98	30	23	f	Filler	72	4	couldn't	3	235.0	NA
98	30	23	f	Filler	72	4	break	4	282.0	NA
98	30	23	f	Filler	72	4	away	5	215.0	NA
98	30	23	f	Filler	72	4	from	6	221.0	NA
98	30	23	f	Filler	72	4	their	7	250.0	NA
98	30	23	f	Filler	72	4	habit	8	201.0	NA
98	30	23	f	Filler	72	4	of	9	214.0	NA
98	30	23	f	Filler	72	4	coffee	10	250.0	NA
98	30	23	f	Filler	72	4	and	11	367.0	NA
98	30	23	f	Filler	72	4	cigarettes	12	334.0	NA
98	30	23	f	Filler	72	4	during	13	401.0	NA
98	30	23	f	Filler	72	4	their	14	250.0	NA
98	30	23	f	Filler	72	4	breaks.	15	267.0	NA
98	30	23	f	Question	72	4	NA	NA	1141.0	1
99	30	23	f	swets	4	3	The	1	96.0	NA
99	30	23	f	swets	4	3	father	2	299.0	NA
99	30	23	f	swets	4	3	of	3	302.0	NA
99	30	23	f	swets	4	3	the	4	331.0	NA
99	30	23	f	swets	4	3	bride	5	251.0	NA
99	30	23	f	swets	4	3	who	6	283.0	NA
99	30	23	f	swets	4	3	embarrassed	7	300.0	NA
99	30	23	f	swets	4	3	himself	8	267.0	NA
99	30	23	f	swets	4	3	at	9	333.0	NA
99	30	23	f	swets	4	3	the	10	250.0	NA
99	30	23	f	swets	4	3	reception	11	334.0	NA
99	30	23	f	swets	4	3	was	12	282.0	NA
99	30	23	f	swets	4	3	complaining	13	302.0	NA
99	30	23	f	swets	4	3	to	14	217.0	NA
99	30	23	f	swets	4	3	the	15	249.0	NA
99	30	23	f	swets	4	3	priest.	16	252.0	NA
99	30	23	f	Question	4	3	NA	NA	1091.0	1
100	30	23	f	Filler	100	5	There	1	314.0	NA
100	30	23	f	Filler	100	5	was	2	217.0	NA
100	30	23	f	Filler	100	5	a	3	234.0	NA
100	30	23	f	Filler	100	5	large	4	249.0	NA
100	30	23	f	Filler	100	5	sale	5	216.0	NA
100	30	23	f	Filler	100	5	on	6	201.0	NA
100	30	23	f	Filler	100	5	stationary	7	234.0	NA
100	30	23	f	Filler	100	5	and	8	233.0	NA
100	30	23	f	Filler	100	5	office	9	250.0	NA
100	30	23	f	Filler	100	5	supplies	10	234.0	NA
100	30	23	f	Filler	100	5	at	11	300.0	NA
100	30	23	f	Filler	100	5	the	12	232.0	NA
100	30	23	f	Filler	100	5	student	13	267.0	NA
100	30	23	f	Filler	100	5	bookstore.	14	335.0	NA
100	30	23	f	Question	100	5	NA	NA	1290.0	1
101	30	23	f	swets	5	1	The	1	480.0	NA
101	30	23	f	swets	5	1	uncle	2	300.0	NA
101	30	23	f	swets	5	1	of	3	267.0	NA
101	30	23	f	swets	5	1	the	4	218.0	NA
101	30	23	f	swets	5	1	bishop	5	249.0	NA
101	30	23	f	swets	5	1	who	6	200.0	NA
101	30	23	f	swets	5	1	injured	7	268.0	NA
101	30	23	f	swets	5	1	himself	8	349.0	NA
101	30	23	f	swets	5	1	last	9	233.0	NA
101	30	23	f	swets	5	1	summer	10	268.0	NA
101	30	23	f	swets	5	1	was	11	267.0	NA
101	30	23	f	swets	5	1	concerned	12	433.0	NA
101	30	23	f	swets	5	1	about	13	219.0	NA
101	30	23	f	swets	5	1	the	14	247.0	NA
101	30	23	f	swets	5	1	infection.	15	320.0	NA
101	30	23	f	Question	5	1	NA	NA	942.0	1
102	30	23	f	Filler	55	4	The	1	294.0	NA
102	30	23	f	Filler	55	4	people	2	235.0	NA
102	30	23	f	Filler	55	4	certainly	3	202.0	NA
102	30	23	f	Filler	55	4	admired	4	164.0	NA
102	30	23	f	Filler	55	4	the	5	168.0	NA
102	30	23	f	Filler	55	4	wife	6	198.0	NA
102	30	23	f	Filler	55	4	of	7	185.0	NA
102	30	23	f	Filler	55	4	the	8	150.0	NA
102	30	23	f	Filler	55	4	janitor	9	199.0	NA
102	30	23	f	Filler	55	4	because	10	134.0	NA
102	30	23	f	Filler	55	4	she	11	216.0	NA
102	30	23	f	Filler	55	4	educated	12	220.0	NA
102	30	23	f	Filler	55	4	herself	13	381.0	NA
102	30	23	f	Filler	55	4	at	14	269.0	NA
102	30	23	f	Filler	55	4	night.	15	401.0	NA
102	30	23	f	Question	55	4	NA	NA	1425.0	1
103	30	23	f	Filler	50	4	The	1	264.0	NA
103	30	23	f	Filler	50	4	new	2	218.0	NA
103	30	23	f	Filler	50	4	language	3	301.0	NA
103	30	23	f	Filler	50	4	requirement	4	264.0	NA
103	30	23	f	Filler	50	4	made	5	200.0	NA
103	30	23	f	Filler	50	4	all	6	449.0	NA
103	30	23	f	Filler	50	4	the	7	286.0	NA
103	30	23	f	Filler	50	4	students	8	267.0	NA
103	30	23	f	Filler	50	4	say	9	316.0	NA
103	30	23	f	Filler	50	4	bad	10	315.0	NA
103	30	23	f	Filler	50	4	things	11	400.0	NA
103	30	23	f	Filler	50	4	about	12	318.0	NA
103	30	23	f	Filler	50	4	the	13	233.0	NA
103	30	23	f	Filler	50	4	dean	14	287.0	NA
103	30	23	f	Filler	50	4	of	15	400.0	NA
103	30	23	f	Filler	50	4	the	16	248.0	NA
103	30	23	f	Filler	50	4	college.	17	267.0	NA
103	30	23	f	Question	50	4	NA	NA	1426.0	1
104	30	23	f	Filler	53	4	The	1	263.0	NA
104	30	23	f	Filler	53	4	clay	2	167.0	NA
104	30	23	f	Filler	53	4	pot	3	218.0	NA
104	30	23	f	Filler	53	4	was	4	182.0	NA
104	30	23	f	Filler	53	4	full	5	168.0	NA
104	30	23	f	Filler	53	4	of	6	116.0	NA
104	30	23	f	Filler	53	4	gold	7	150.0	NA
104	30	23	f	Filler	53	4	coins	8	199.0	NA
104	30	23	f	Filler	53	4	and	9	184.0	NA
104	30	23	f	Filler	53	4	the	10	333.0	NA
104	30	23	f	Filler	53	4	thief	11	333.0	NA
104	30	23	f	Filler	53	4	knew	12	183.0	NA
104	30	23	f	Filler	53	4	he	13	267.0	NA
104	30	23	f	Filler	53	4	had	14	301.0	NA
104	30	23	f	Filler	53	4	finally	15	135.0	NA
104	30	23	f	Filler	53	4	hit	16	83.0	NA
104	30	23	f	Filler	53	4	the	17	283.0	NA
104	30	23	f	Filler	53	4	jackpot.	18	267.0	NA
104	30	23	f	Question	53	4	NA	NA	1009.0	1
105	30	23	f	Filler	125	6	The	1	95.0	NA
105	30	23	f	Filler	125	6	bosses	2	316.0	NA
105	30	23	f	Filler	125	6	and	3	249.0	NA
105	30	23	f	Filler	125	6	secretaries	4	217.0	NA
105	30	23	f	Filler	125	6	took	5	383.0	NA
105	30	23	f	Filler	125	6	a	6	654.0	NA
105	30	23	f	Filler	125	6	long	7	232.0	NA
105	30	23	f	Filler	125	6	lunch	8	185.0	NA
105	30	23	f	Filler	125	6	together	9	133.0	NA
105	30	23	f	Filler	125	6	every	10	215.0	NA
105	30	23	f	Filler	125	6	Friday.	11	168.0	NA
105	30	23	f	Question	125	6	NA	NA	1375.0	1
106	30	23	f	swets	24	2	The	1	313.0	NA
106	30	23	f	swets	24	2	daughter	2	219.0	NA
106	30	23	f	swets	24	2	of	3	216.0	NA
106	30	23	f	swets	24	2	the	4	185.0	NA
106	30	23	f	swets	24	2	chaplain	5	232.0	NA
106	30	23	f	swets	24	2	who	6	132.0	NA
106	30	23	f	swets	24	2	drew	7	484.0	NA
106	30	23	f	swets	24	2	attention	8	216.0	NA
106	30	23	f	swets	24	2	to	9	368.0	NA
106	30	23	f	swets	24	2	himself	10	216.0	NA
106	30	23	f	swets	24	2	all	11	201.0	NA
106	30	23	f	swets	24	2	the	12	250.0	NA
106	30	23	f	swets	24	2	time	13	200.0	NA
106	30	23	f	swets	24	2	hated	14	383.0	NA
106	30	23	f	swets	24	2	small	15	233.0	NA
106	30	23	f	swets	24	2	children.	16	135.0	NA
106	30	23	f	Question	24	2	NA	NA	858.0	1
107	30	23	f	Filler	76	5	After	1	179.0	NA
107	30	23	f	Filler	76	5	fifty	2	200.0	NA
107	30	23	f	Filler	76	5	years	3	201.0	NA
107	30	23	f	Filler	76	5	of	4	215.0	NA
107	30	23	f	Filler	76	5	marriage	5	133.0	NA
107	30	23	f	Filler	76	5	the	6	182.0	NA
107	30	23	f	Filler	76	5	old	7	235.0	NA
107	30	23	f	Filler	76	5	couple	8	251.0	NA
107	30	23	f	Filler	76	5	still	9	186.0	NA
107	30	23	f	Filler	76	5	felt	10	266.0	NA
107	30	23	f	Filler	76	5	the	11	250.0	NA
107	30	23	f	Filler	76	5	same	12	650.0	NA
107	30	23	f	Filler	76	5	about	13	366.0	NA
107	30	23	f	Filler	76	5	each	14	283.0	NA
107	30	23	f	Filler	76	5	other	15	382.0	NA
107	30	23	f	Filler	76	5	as	16	302.0	NA
107	30	23	f	Filler	76	5	they	17	300.0	NA
107	30	23	f	Filler	76	5	had	18	284.0	NA
107	30	23	f	Filler	76	5	on	19	499.0	NA
107	30	23	f	Filler	76	5	their	20	302.0	NA
107	30	23	f	Filler	76	5	wedding	21	218.0	NA
107	30	23	f	Filler	76	5	day.	22	333.0	NA
107	30	23	f	Question	76	5	NA	NA	939.0	1
108	30	23	f	swets	18	2	The	1	46.0	NA
108	30	23	f	swets	18	2	niece	2	199.0	NA
108	30	23	f	swets	18	2	of	3	166.0	NA
108	30	23	f	swets	18	2	the	4	134.0	NA
108	30	23	f	swets	18	2	fisherman	5	165.0	NA
108	30	23	f	swets	18	2	who	6	317.0	NA
108	30	23	f	swets	18	2	drowned	7	187.0	NA
108	30	23	f	swets	18	2	himself	8	132.0	NA
108	30	23	f	swets	18	2	in	9	201.0	NA
108	30	23	f	swets	18	2	the	10	266.0	NA
108	30	23	f	swets	18	2	ocean	11	166.0	NA
108	30	23	f	swets	18	2	didn't	12	450.0	NA
108	30	23	f	swets	18	2	know	13	201.0	NA
108	30	23	f	swets	18	2	about	14	185.0	NA
108	30	23	f	swets	18	2	the	15	216.0	NA
108	30	23	f	swets	18	2	tricky	16	299.0	NA
108	30	23	f	swets	18	2	current.	17	268.0	NA
108	30	23	f	Question	18	2	NA	NA	1761.0	1
109	30	23	f	Filler	121	6	The	1	262.0	NA
109	30	23	f	Filler	121	6	ecologist	2	168.0	NA
109	30	23	f	Filler	121	6	wondered	3	480.0	NA
109	30	23	f	Filler	121	6	which	4	319.0	NA
109	30	23	f	Filler	121	6	plants	5	566.0	NA
109	30	23	f	Filler	121	6	the	6	251.0	NA
109	30	23	f	Filler	121	6	scientist	7	265.0	NA
109	30	23	f	Filler	121	6	grew	8	186.0	NA
109	30	23	f	Filler	121	6	but	9	285.0	NA
109	30	23	f	Filler	121	6	didn't	10	232.0	NA
109	30	23	f	Filler	121	6	modify	11	232.0	NA
109	30	23	f	Filler	121	6	the	12	184.0	NA
109	30	23	f	Filler	121	6	seeds	13	332.0	NA
109	30	23	f	Filler	121	6	of	14	300.0	NA
109	30	23	f	Filler	121	6	in	15	218.0	NA
109	30	23	f	Filler	121	6	the	16	282.0	NA
109	30	23	f	Filler	121	6	lab.	17	235.0	NA
109	30	23	f	Question	121	6	NA	NA	859.0	1
110	30	23	f	Filler	88	5	The	1	345.0	NA
110	30	23	f	Filler	88	5	woman's	2	401.0	NA
110	30	23	f	Filler	88	5	posture	3	251.0	NA
110	30	23	f	Filler	88	5	began	4	215.0	NA
110	30	23	f	Filler	88	5	to	5	166.0	NA
110	30	23	f	Filler	88	5	go	6	166.0	NA
110	30	23	f	Filler	88	5	bad	7	202.0	NA
110	30	23	f	Filler	88	5	because	8	235.0	NA
110	30	23	f	Filler	88	5	of	9	198.0	NA
110	30	23	f	Filler	88	5	her	10	200.0	NA
110	30	23	f	Filler	88	5	constant	11	151.0	NA
110	30	23	f	Filler	88	5	slumping.	12	234.0	NA
110	30	23	f	Question	88	5	NA	NA	1176.0	1
111	30	23	f	swets	6	2	The	1	312.0	NA
111	30	23	f	swets	6	2	hostess	2	301.0	NA
111	30	23	f	swets	6	2	of	3	282.0	NA
111	30	23	f	swets	6	2	the	4	283.0	NA
111	30	23	f	swets	6	2	mayor	5	317.0	NA
111	30	23	f	swets	6	2	who	6	184.0	NA
111	30	23	f	swets	6	2	complimented	7	236.0	NA
111	30	23	f	swets	6	2	himself	8	431.0	NA
111	30	23	f	swets	6	2	constantly	9	535.0	NA
111	30	23	f	swets	6	2	was	10	284.0	NA
111	30	23	f	swets	6	2	bothered	11	234.0	NA
111	30	23	f	swets	6	2	by	12	281.0	NA
111	30	23	f	swets	6	2	the	13	268.0	NA
111	30	23	f	swets	6	2	reporter.	14	269.0	NA
111	30	23	f	Question	6	2	NA	NA	2093.0	1
112	30	23	f	Filler	52	4	The	1	312.0	NA
112	30	23	f	Filler	52	4	students	2	235.0	NA
112	30	23	f	Filler	52	4	were	3	249.0	NA
112	30	23	f	Filler	52	4	bored	4	217.0	NA
112	30	23	f	Filler	52	4	by	5	181.0	NA
112	30	23	f	Filler	52	4	the	6	203.0	NA
112	30	23	f	Filler	52	4	teacher.	7	217.0	NA
112	30	23	f	Question	52	4	NA	NA	1576.0	1
113	30	23	f	Filler	106	5	On	1	280.0	NA
113	30	23	f	Filler	106	5	the	2	282.0	NA
113	30	23	f	Filler	106	5	last	3	332.0	NA
113	30	23	f	Filler	106	5	night	4	268.0	NA
113	30	23	f	Filler	106	5	of	5	266.0	NA
113	30	23	f	Filler	106	5	summer	6	250.0	NA
113	30	23	f	Filler	106	5	camp	7	149.0	NA
113	30	23	f	Filler	106	5	the	8	387.0	NA
113	30	23	f	Filler	106	5	counselors	9	634.0	NA
113	30	23	f	Filler	106	5	let	10	1084.0	NA
113	30	23	f	Filler	106	5	the	11	334.0	NA
113	30	23	f	Filler	106	5	children	12	249.0	NA
113	30	23	f	Filler	106	5	stay	13	383.0	NA
113	30	23	f	Filler	106	5	up	14	351.0	NA
113	30	23	f	Filler	106	5	until	15	450.0	NA
113	30	23	f	Filler	106	5	midnight.	16	335.0	NA
113	30	23	f	Question	106	5	NA	NA	1362.0	1
114	30	23	f	Filler	138	7	While	1	228.0	NA
114	30	23	f	Filler	138	7	Pedro	2	201.0	NA
114	30	23	f	Filler	138	7	was	3	501.0	NA
114	30	23	f	Filler	138	7	swimming	4	201.0	NA
114	30	23	f	Filler	138	7	the	5	414.0	NA
114	30	23	f	Filler	138	7	lifeguard	6	254.0	NA
114	30	23	f	Filler	138	7	sat	7	265.0	NA
114	30	23	f	Filler	138	7	in	8	268.0	NA
114	30	23	f	Filler	138	7	his	9	250.0	NA
114	30	23	f	Filler	138	7	chair.	10	266.0	NA
114	30	23	f	Question	138	7	NA	NA	1226.0	1
115	30	23	f	Filler	141	7	The	1	129.0	NA
115	30	23	f	Filler	141	7	nurse	2	166.0	NA
115	30	23	f	Filler	141	7	and	3	253.0	NA
115	30	23	f	Filler	141	7	custodian	4	766.0	NA
115	30	23	f	Filler	141	7	chatted	5	216.0	NA
115	30	23	f	Filler	141	7	during	6	385.0	NA
115	30	23	f	Filler	141	7	their	7	248.0	NA
115	30	23	f	Filler	141	7	break.	8	317.0	NA
115	30	23	f	Question	141	7	NA	NA	710.0	1
116	30	23	f	swets	29	1	The	1	330.0	NA
116	30	23	f	swets	29	1	brother	2	217.0	NA
116	30	23	f	swets	29	1	of	3	235.0	NA
116	30	23	f	swets	29	1	the	4	213.0	NA
116	30	23	f	swets	29	1	colonel	5	201.0	NA
116	30	23	f	swets	29	1	who	6	267.0	NA
116	30	23	f	swets	29	1	enjoyed	7	534.0	NA
116	30	23	f	swets	29	1	himself	8	183.0	NA
116	30	23	f	swets	29	1	a	9	266.0	NA
116	30	23	f	swets	29	1	lot	10	282.0	NA
116	30	23	f	swets	29	1	was	11	352.0	NA
116	30	23	f	swets	29	1	out	12	265.0	NA
116	30	23	f	swets	29	1	on	13	267.0	NA
116	30	23	f	swets	29	1	the	14	387.0	NA
116	30	23	f	swets	29	1	balcony.	15	268.0	NA
116	30	23	f	Question	29	1	NA	NA	791.0	1
117	30	23	f	Filler	143	7	The	1	162.0	NA
117	30	23	f	Filler	143	7	lawyer	2	401.0	NA
117	30	23	f	Filler	143	7	and	3	266.0	NA
117	30	23	f	Filler	143	7	defendant	4	216.0	NA
117	30	23	f	Filler	143	7	whispered	5	369.0	NA
117	30	23	f	Filler	143	7	furiously	6	267.0	NA
117	30	23	f	Filler	143	7	during	7	235.0	NA
117	30	23	f	Filler	143	7	the	8	231.0	NA
117	30	23	f	Filler	143	7	recess.	9	251.0	NA
117	30	23	f	Question	143	7	NA	NA	1878.0	1
118	30	23	f	Filler	118	6	As	1	380.0	NA
118	30	23	f	Filler	118	6	the	2	251.0	NA
118	30	23	f	Filler	118	6	dog	3	166.0	NA
118	30	23	f	Filler	118	6	ran	4	317.0	NA
118	30	23	f	Filler	118	6	Wanda	5	200.0	NA
118	30	23	f	Filler	118	6	watched	6	150.0	NA
118	30	23	f	Filler	118	6	from	7	382.0	NA
118	30	23	f	Filler	118	6	the	8	203.0	NA
118	30	23	f	Filler	118	6	window.	9	299.0	NA
118	30	23	f	Question	118	6	NA	NA	1293.0	1
119	30	23	f	swets	32	1	The	1	193.0	NA
119	30	23	f	swets	32	1	niece	2	233.0	NA
119	30	23	f	swets	32	1	of	3	251.0	NA
119	30	23	f	swets	32	1	the	4	217.0	NA
119	30	23	f	swets	32	1	duchess	5	168.0	NA
119	30	23	f	swets	32	1	who	6	150.0	NA
119	30	23	f	swets	32	1	looked	7	201.0	NA
119	30	23	f	swets	32	1	at	8	182.0	NA
119	30	23	f	swets	32	1	herself	9	182.0	NA
119	30	23	f	swets	32	1	in	10	350.0	NA
119	30	23	f	swets	32	1	the	11	233.0	NA
119	30	23	f	swets	32	1	mirror	12	186.0	NA
119	30	23	f	swets	32	1	wore	13	299.0	NA
119	30	23	f	swets	32	1	a	14	252.0	NA
119	30	23	f	swets	32	1	blue	15	184.0	NA
119	30	23	f	swets	32	1	shirt.	16	250.0	NA
119	30	23	f	Question	32	1	NA	NA	840.0	1
120	30	23	f	Filler	122	6	They	1	347.0	NA
120	30	23	f	Filler	122	6	don't	2	316.0	NA
120	30	23	f	Filler	122	6	know	3	183.0	NA
120	30	23	f	Filler	122	6	which	4	200.0	NA
120	30	23	f	Filler	122	6	family	5	218.0	NA
120	30	23	f	Filler	122	6	the	6	234.0	NA
120	30	23	f	Filler	122	6	hijackers	7	235.0	NA
120	30	23	f	Filler	122	6	held	8	213.0	NA
120	30	23	f	Filler	122	6	hostage	9	568.0	NA
120	30	23	f	Filler	122	6	but	10	485.0	NA
120	30	23	f	Filler	122	6	didn't	11	450.0	NA
120	30	23	f	Filler	122	6	hurt	12	249.0	NA
120	30	23	f	Filler	122	6	the	13	232.0	NA
120	30	23	f	Filler	122	6	children	14	485.0	NA
120	30	23	f	Filler	122	6	of	15	217.0	NA
120	30	23	f	Filler	122	6	too	16	248.0	NA
120	30	23	f	Filler	122	6	much.	17	287.0	NA
120	30	23	f	Question	122	6	NA	NA	842.0	1
121	30	23	f	swets	2	1	The	1	295.0	NA
121	30	23	f	swets	2	1	uncle	2	216.0	NA
121	30	23	f	swets	2	1	of	3	266.0	NA
121	30	23	f	swets	2	1	the	4	251.0	NA
121	30	23	f	swets	2	1	fireman	5	252.0	NA
121	30	23	f	swets	2	1	who	6	250.0	NA
121	30	23	f	swets	2	1	criticized	7	266.0	NA
121	30	23	f	swets	2	1	himself	8	251.0	NA
121	30	23	f	swets	2	1	far	9	248.0	NA
121	30	23	f	swets	2	1	too	10	253.0	NA
121	30	23	f	swets	2	1	often	11	282.0	NA
121	30	23	f	swets	2	1	was	12	234.0	NA
121	30	23	f	swets	2	1	painting	13	234.0	NA
121	30	23	f	swets	2	1	the	14	300.0	NA
121	30	23	f	swets	2	1	bedroom.	15	234.0	NA
121	30	23	f	Question	2	1	NA	NA	1042.0	1
122	30	23	f	Filler	54	4	The	1	328.0	NA
122	30	23	f	Filler	54	4	video	2	267.0	NA
122	30	23	f	Filler	54	4	screen	3	216.0	NA
122	30	23	f	Filler	54	4	of	4	252.0	NA
122	30	23	f	Filler	54	4	the	5	233.0	NA
122	30	23	f	Filler	54	4	monitor	6	249.0	NA
122	30	23	f	Filler	54	4	made	7	318.0	NA
122	30	23	f	Filler	54	4	strange	8	265.0	NA
122	30	23	f	Filler	54	4	noises	9	169.0	NA
122	30	23	f	Filler	54	4	and	10	214.0	NA
122	30	23	f	Filler	54	4	started	11	185.0	NA
122	30	23	f	Filler	54	4	emitting	12	235.0	NA
122	30	23	f	Filler	54	4	strange	13	200.0	NA
122	30	23	f	Filler	54	4	flashes.	14	268.0	NA
122	30	23	f	Question	54	4	NA	NA	1508.0	1
123	30	23	f	Filler	87	5	The	1	78.0	NA
123	30	23	f	Filler	87	5	car	2	168.0	NA
123	30	23	f	Filler	87	5	chased	3	486.0	NA
123	30	23	f	Filler	87	5	the	4	365.0	NA
123	30	23	f	Filler	87	5	robber	5	300.0	NA
123	30	23	f	Filler	87	5	of	6	201.0	NA
123	30	23	f	Filler	87	5	the	7	217.0	NA
123	30	23	f	Filler	87	5	bank	8	233.0	NA
123	30	23	f	Filler	87	5	into	9	216.0	NA
123	30	23	f	Filler	87	5	a	10	333.0	NA
123	30	23	f	Filler	87	5	narrow	11	317.0	NA
123	30	23	f	Filler	87	5	alley.	12	319.0	NA
123	30	23	f	Question	87	5	NA	NA	797.0	1
124	30	23	f	swets	1	3	The	1	295.0	NA
124	30	23	f	swets	1	3	brother	2	200.0	NA
124	30	23	f	swets	1	3	of	3	201.0	NA
124	30	23	f	swets	1	3	the	4	284.0	NA
124	30	23	f	swets	1	3	actress	5	150.0	NA
124	30	23	f	swets	1	3	who	6	266.0	NA
124	30	23	f	swets	1	3	called	7	265.0	NA
124	30	23	f	swets	1	3	attention	8	217.0	NA
124	30	23	f	swets	1	3	to	9	185.0	NA
124	30	23	f	swets	1	3	himself	10	182.0	NA
124	30	23	f	swets	1	3	on	11	183.0	NA
124	30	23	f	swets	1	3	the	12	333.0	NA
124	30	23	f	swets	1	3	balcony	13	188.0	NA
124	30	23	f	swets	1	3	was	14	265.0	NA
124	30	23	f	swets	1	3	under	15	217.0	NA
124	30	23	f	swets	1	3	investigation.	16	166.0	NA
124	30	23	f	Question	1	3	NA	NA	875.0	1
125	30	23	f	Filler	39	4	The	1	244.0	NA
125	30	23	f	Filler	39	4	overweight	2	303.0	NA
125	30	23	f	Filler	39	4	aunt	3	232.0	NA
125	30	23	f	Filler	39	4	decided	4	201.0	NA
125	30	23	f	Filler	39	4	to	5	153.0	NA
125	30	23	f	Filler	39	4	make	6	133.0	NA
125	30	23	f	Filler	39	4	cookies	7	334.0	NA
125	30	23	f	Filler	39	4	and	8	265.0	NA
125	30	23	f	Filler	39	4	cupcakes	9	201.0	NA
125	30	23	f	Filler	39	4	for	10	98.0	NA
125	30	23	f	Filler	39	4	the	11	268.0	NA
125	30	23	f	Filler	39	4	dinner	12	284.0	NA
125	30	23	f	Filler	39	4	party.	13	200.0	NA
125	30	23	f	Question	39	4	NA	NA	765.0	1
126	30	23	f	swets	19	3	The	1	329.0	NA
126	30	23	f	swets	19	3	mistress	2	130.0	NA
126	30	23	f	swets	19	3	of	3	136.0	NA
126	30	23	f	swets	19	3	the	4	232.0	NA
126	30	23	f	swets	19	3	actor	5	184.0	NA
126	30	23	f	swets	19	3	who	6	168.0	NA
126	30	23	f	swets	19	3	hated	7	248.0	NA
126	30	23	f	swets	19	3	herself	8	218.0	NA
126	30	23	f	swets	19	3	for	9	267.0	NA
126	30	23	f	swets	19	3	lying	10	367.0	NA
126	30	23	f	swets	19	3	left	11	283.0	NA
126	30	23	f	swets	19	3	town	12	283.0	NA
126	30	23	f	swets	19	3	in	13	334.0	NA
126	30	23	f	swets	19	3	a	14	399.0	NA
126	30	23	f	swets	19	3	hurry.	15	204.0	NA
126	30	23	f	Question	19	3	NA	NA	1307.0	1
127	30	23	f	Filler	104	5	Despite	1	329.0	NA
127	30	23	f	Filler	104	5	the	2	168.0	NA
127	30	23	f	Filler	104	5	relative	3	300.0	NA
127	30	23	f	Filler	104	5	lack	4	184.0	NA
127	30	23	f	Filler	104	5	of	5	268.0	NA
127	30	23	f	Filler	104	5	rain	6	215.0	NA
127	30	23	f	Filler	104	5	the	7	152.0	NA
127	30	23	f	Filler	104	5	farmer	8	134.0	NA
127	30	23	f	Filler	104	5	harvested	9	165.0	NA
127	30	23	f	Filler	104	5	much	10	217.0	NA
127	30	23	f	Filler	104	5	wheat.	11	200.0	NA
127	30	23	f	Question	104	5	NA	NA	1458.0	1
128	30	23	f	swets	13	3	The	1	348.0	NA
128	30	23	f	swets	13	3	great-aunt	2	200.0	NA
128	30	23	f	swets	13	3	of	3	449.0	NA
128	30	23	f	swets	13	3	the	4	235.0	NA
128	30	23	f	swets	13	3	policeman	5	332.0	NA
128	30	23	f	swets	13	3	who	6	452.0	NA
128	30	23	f	swets	13	3	treated	7	167.0	NA
128	30	23	f	swets	13	3	herself	8	147.0	NA
128	30	23	f	swets	13	3	after	9	235.0	NA
128	30	23	f	swets	13	3	the	10	233.0	NA
128	30	23	f	swets	13	3	accident	11	651.0	NA
128	30	23	f	swets	13	3	was	12	266.0	NA
128	30	23	f	swets	13	3	watching	13	236.0	NA
128	30	23	f	swets	13	3	the	14	217.0	NA
128	30	23	f	swets	13	3	news.	15	250.0	NA
128	30	23	f	Question	13	3	NA	NA	1743.0	1
129	30	23	f	Filler	42	4	After	1	330.0	NA
129	30	23	f	Filler	42	4	dinner	2	133.0	NA
129	30	23	f	Filler	42	4	the	3	200.0	NA
129	30	23	f	Filler	42	4	children	4	184.0	NA
129	30	23	f	Filler	42	4	gathered	5	136.0	NA
129	30	23	f	Filler	42	4	in	6	166.0	NA
129	30	23	f	Filler	42	4	a	7	380.0	NA
129	30	23	f	Filler	42	4	circle	8	250.0	NA
129	30	23	f	Filler	42	4	to	9	235.0	NA
129	30	23	f	Filler	42	4	listen	10	217.0	NA
129	30	23	f	Filler	42	4	to	11	299.0	NA
129	30	23	f	Filler	42	4	their	12	201.0	NA
129	30	23	f	Filler	42	4	grandmother's	13	168.0	NA
129	30	23	f	Filler	42	4	stories	14	331.0	NA
129	30	23	f	Filler	42	4	about	15	202.0	NA
129	30	23	f	Filler	42	4	the	16	182.0	NA
129	30	23	f	Filler	42	4	good	17	217.0	NA
129	30	23	f	Filler	42	4	old	18	200.0	NA
129	30	23	f	Filler	42	4	days.	19	421.0	NA
129	30	23	f	Question	42	4	NA	NA	992.0	1
130	30	23	f	Filler	135	7	While	1	328.0	NA
130	30	23	f	Filler	135	7	Donna	2	151.0	NA
130	30	23	f	Filler	135	7	and	3	134.0	NA
130	30	23	f	Filler	135	7	Scott	4	150.0	NA
130	30	23	f	Filler	135	7	met	5	201.0	NA
130	30	23	f	Filler	135	7	their	6	198.0	NA
130	30	23	f	Filler	135	7	agent	7	186.0	NA
130	30	23	f	Filler	135	7	some	8	149.0	NA
130	30	23	f	Filler	135	7	friends	9	151.0	NA
130	30	23	f	Filler	135	7	called	10	150.0	NA
130	30	23	f	Filler	135	7	and	11	235.0	NA
130	30	23	f	Filler	135	7	left	12	214.0	NA
130	30	23	f	Filler	135	7	a	13	167.0	NA
130	30	23	f	Filler	135	7	message.	14	668.0	NA
130	30	23	f	Question	135	7	NA	NA	1191.0	1
131	30	23	f	swets	30	2	The	1	313.0	NA
131	30	23	f	swets	30	2	bodyguard	2	367.0	NA
131	30	23	f	swets	30	2	of	3	264.0	NA
131	30	23	f	swets	30	2	the	4	236.0	NA
131	30	23	f	swets	30	2	baroness	5	233.0	NA
131	30	23	f	swets	30	2	who	6	167.0	NA
131	30	23	f	swets	30	2	prepared	7	200.0	NA
131	30	23	f	swets	30	2	herself	8	100.0	NA
131	30	23	f	swets	30	2	very	9	166.0	NA
131	30	23	f	swets	30	2	thoroughly	10	35.0	NA
131	30	23	f	swets	30	2	came	11	731.0	NA
131	30	23	f	swets	30	2	from	12	386.0	NA
131	30	23	f	swets	30	2	the	13	83.0	NA
131	30	23	f	swets	30	2	south.	14	869.0	NA
131	30	23	f	Question	30	2	NA	NA	1275.0	1
132	30	23	f	Filler	99	5	The	1	46.0	NA
132	30	23	f	Filler	99	5	daring	2	332.0	NA
132	30	23	f	Filler	99	5	photographer	3	167.0	NA
132	30	23	f	Filler	99	5	captured	4	534.0	NA
132	30	23	f	Filler	99	5	the	5	218.0	NA
132	30	23	f	Filler	99	5	image	6	416.0	NA
132	30	23	f	Filler	99	5	of	7	251.0	NA
132	30	23	f	Filler	99	5	the	8	331.0	NA
132	30	23	f	Filler	99	5	destruction	9	203.0	NA
132	30	23	f	Filler	99	5	as	10	482.0	NA
132	30	23	f	Filler	99	5	it	11	817.0	NA
132	30	23	f	Filler	99	5	devastated	12	1202.0	NA
132	30	23	f	Filler	99	5	the	13	332.0	NA
132	30	23	f	Filler	99	5	village.	14	370.0	NA
132	30	23	f	Question	99	5	NA	NA	1057.0	1
133	30	23	f	Filler	124	6	The	1	294.0	NA
133	30	23	f	Filler	124	6	mothers	2	218.0	NA
133	30	23	f	Filler	124	6	and	3	198.0	NA
133	30	23	f	Filler	124	6	teachers	4	168.0	NA
133	30	23	f	Filler	124	6	played	5	400.0	NA
133	30	23	f	Filler	124	6	tennis	6	186.0	NA
133	30	23	f	Filler	124	6	after	7	166.0	NA
133	30	23	f	Filler	124	6	the	8	133.0	NA
133	30	23	f	Filler	124	6	kids	9	117.0	NA
133	30	23	f	Filler	124	6	left.	10	100.0	NA
133	30	23	f	Question	124	6	NA	NA	826.0	1
134	30	23	f	Filler	136	7	While	1	230.0	NA
134	30	23	f	Filler	136	7	Mark	2	198.0	NA
134	30	23	f	Filler	136	7	and	3	115.0	NA
134	30	23	f	Filler	136	7	Jenny	4	554.0	NA
134	30	23	f	Filler	136	7	were	5	151.0	NA
134	30	23	f	Filler	136	7	cuddling	6	133.0	NA
134	30	23	f	Filler	136	7	the	7	148.0	NA
134	30	23	f	Filler	136	7	older	8	168.0	NA
134	30	23	f	Filler	136	7	dogs	9	167.0	NA
134	30	23	f	Filler	136	7	the	10	184.0	NA
134	30	23	f	Filler	136	7	puppies	11	134.0	NA
134	30	23	f	Filler	136	7	nipped	12	397.0	NA
134	30	23	f	Filler	136	7	at	13	151.0	NA
134	30	23	f	Filler	136	7	their	14	167.0	NA
134	30	23	f	Filler	136	7	feet.	15	117.0	NA
134	30	23	f	Question	136	7	NA	NA	1094.0	1
135	30	23	f	Filler	127	7	While	1	30.0	NA
135	30	23	f	Filler	127	7	Linda	2	182.0	NA
135	30	23	f	Filler	127	7	wrote	3	166.0	NA
135	30	23	f	Filler	127	7	the	4	133.0	NA
135	30	23	f	Filler	127	7	letter	5	118.0	NA
135	30	23	f	Filler	127	7	arrived	6	100.0	NA
135	30	23	f	Filler	127	7	from	7	114.0	NA
135	30	23	f	Filler	127	7	Chicago.	8	137.0	NA
135	30	23	f	Question	127	7	NA	NA	1075.0	1
136	30	23	f	swets	34	3	The	1	262.0	NA
136	30	23	f	swets	34	3	waiter	2	217.0	NA
136	30	23	f	swets	34	3	of	3	250.0	NA
136	30	23	f	swets	34	3	the	4	151.0	NA
136	30	23	f	swets	34	3	woman	5	116.0	NA
136	30	23	f	swets	34	3	who	6	116.0	NA
136	30	23	f	swets	34	3	considered	7	83.0	NA
136	30	23	f	swets	34	3	himself	8	201.0	NA
136	30	23	f	swets	34	3	a	9	184.0	NA
136	30	23	f	swets	34	3	natural	10	132.0	NA
136	30	23	f	swets	34	3	beauty	11	167.0	NA
136	30	23	f	swets	34	3	spilled	12	235.0	NA
136	30	23	f	swets	34	3	the	13	167.0	NA
136	30	23	f	swets	34	3	drinks.	14	101.0	NA
136	30	23	f	Question	34	3	NA	NA	1024.0	1
137	30	23	f	Filler	97	5	The	1	294.0	NA
137	30	23	f	Filler	97	5	tall	2	234.0	NA
137	30	23	f	Filler	97	5	man	3	250.0	NA
137	30	23	f	Filler	97	5	laughed	4	168.0	NA
137	30	23	f	Filler	97	5	at	5	98.0	NA
137	30	23	f	Filler	97	5	the	6	100.0	NA
137	30	23	f	Filler	97	5	clumsy	7	100.0	NA
137	30	23	f	Filler	97	5	child	8	268.0	NA
137	30	23	f	Filler	97	5	who	9	148.0	NA
137	30	23	f	Filler	97	5	spilled	10	136.0	NA
137	30	23	f	Filler	97	5	the	11	99.0	NA
137	30	23	f	Filler	97	5	milk	12	167.0	NA
137	30	23	f	Filler	97	5	on	13	148.0	NA
137	30	23	f	Filler	97	5	himself.	14	389.0	NA
137	30	23	f	Question	97	5	NA	NA	891.0	1
138	30	23	f	Filler	110	6	While	1	228.0	NA
138	30	23	f	Filler	110	6	the	2	150.0	NA
138	30	23	f	Filler	110	6	lawyer	3	101.0	NA
138	30	23	f	Filler	110	6	was	4	117.0	NA
138	30	23	f	Filler	110	6	reading	5	135.0	NA
138	30	23	f	Filler	110	6	the	6	215.0	NA
138	30	23	f	Filler	110	6	will	7	183.0	NA
138	30	23	f	Filler	110	6	the	8	134.0	NA
138	30	23	f	Filler	110	6	contract	9	419.0	NA
138	30	23	f	Filler	110	6	remained	10	250.0	NA
138	30	23	f	Filler	110	6	on	11	350.0	NA
138	30	23	f	Filler	110	6	the	12	217.0	NA
138	30	23	f	Filler	110	6	desk.	13	400.0	NA
138	30	23	f	Question	110	6	NA	NA	826.0	1
139	30	23	f	swets	26	1	The	1	229.0	NA
139	30	23	f	swets	26	1	grand-nephew	2	135.0	NA
139	30	23	f	swets	26	1	of	3	399.0	NA
139	30	23	f	swets	26	1	the	4	152.0	NA
139	30	23	f	swets	26	1	admiral	5	116.0	NA
139	30	23	f	swets	26	1	who	6	84.0	NA
139	30	23	f	swets	26	1	wrote	7	367.0	NA
139	30	23	f	swets	26	1	himself	8	134.0	NA
139	30	23	f	swets	26	1	a	9	133.0	NA
139	30	23	f	swets	26	1	note	10	364.0	NA
139	30	23	f	swets	26	1	admired	11	385.0	NA
139	30	23	f	swets	26	1	sailors	12	233.0	NA
139	30	23	f	swets	26	1	very	13	334.0	NA
139	30	23	f	swets	26	1	much.	14	201.0	NA
139	30	23	f	Question	26	1	NA	NA	924.0	1
140	30	23	f	Filler	116	6	As	1	245.0	NA
140	30	23	f	Filler	116	6	the	2	151.0	NA
140	30	23	f	Filler	116	6	survivors	3	100.0	NA
140	30	23	f	Filler	116	6	were	4	132.0	NA
140	30	23	f	Filler	116	6	embracing	5	134.0	NA
140	30	23	f	Filler	116	6	the	6	48.0	NA
140	30	23	f	Filler	116	6	firefighter	7	202.0	NA
140	30	23	f	Filler	116	6	coughed	8	199.0	NA
140	30	23	f	Filler	116	6	violently.	9	100.0	NA
140	30	23	f	Question	116	6	NA	NA	999.0	1
141	30	23	f	swets	27	2	The	1	144.0	NA
141	30	23	f	swets	27	2	sister	2	551.0	NA
141	30	23	f	swets	27	2	of	3	166.0	NA
141	30	23	f	swets	27	2	the	4	149.0	NA
141	30	23	f	swets	27	2	butcher	5	135.0	NA
141	30	23	f	swets	27	2	who	6	98.0	NA
141	30	23	f	swets	27	2	invited	7	102.0	NA
141	30	23	f	swets	27	2	himself	8	282.0	NA
141	30	23	f	swets	27	2	to	9	119.0	NA
141	30	23	f	swets	27	2	the	10	134.0	NA
141	30	23	f	swets	27	2	party	11	118.0	NA
141	30	23	f	swets	27	2	enjoyed	12	134.0	NA
141	30	23	f	swets	27	2	it	13	163.0	NA
141	30	23	f	swets	27	2	quite	14	536.0	NA
141	30	23	f	swets	27	2	a	15	166.0	NA
141	30	23	f	swets	27	2	bit.	16	166.0	NA
141	30	23	f	Question	27	2	NA	NA	1042.0	1
142	30	23	f	Filler	75	5	The	1	298.0	NA
142	30	23	f	Filler	75	5	musician	2	168.0	NA
142	30	23	f	Filler	75	5	shocked	3	135.0	NA
142	30	23	f	Filler	75	5	the	4	131.0	NA
142	30	23	f	Filler	75	5	audience	5	167.0	NA
142	30	23	f	Filler	75	5	because	6	100.0	NA
142	30	23	f	Filler	75	5	they	7	84.0	NA
142	30	23	f	Filler	75	5	did	8	117.0	NA
142	30	23	f	Filler	75	5	not	9	117.0	NA
142	30	23	f	Filler	75	5	realize	10	134.0	NA
142	30	23	f	Filler	75	5	what	11	214.0	NA
142	30	23	f	Filler	75	5	these	12	169.0	NA
142	30	23	f	Filler	75	5	shows	13	183.0	NA
142	30	23	f	Filler	75	5	were	14	384.0	NA
142	30	23	f	Filler	75	5	like.	15	232.0	NA
142	30	23	f	Question	75	5	NA	NA	3495.0	1
143	30	23	f	Filler	133	7	While	1	262.0	NA
143	30	23	f	Filler	133	7	the	2	184.0	NA
143	30	23	f	Filler	133	7	lawyers	3	168.0	NA
143	30	23	f	Filler	133	7	fought	4	65.0	NA
143	30	23	f	Filler	133	7	the	5	134.0	NA
143	30	23	f	Filler	133	7	ruling	6	136.0	NA
143	30	23	f	Filler	133	7	the	7	82.0	NA
143	30	23	f	Filler	133	7	judge	8	167.0	NA
143	30	23	f	Filler	133	7	announced	9	100.0	NA
143	30	23	f	Filler	133	7	the	10	349.0	NA
143	30	23	f	Filler	133	7	decision.	11	167.0	NA
143	30	23	f	Question	133	7	NA	NA	2343.0	1
