trial	subj	age	gender	stimulustype	item	condition	word	position	rt	correct
0	2	20	M	Filler	123	6	The	1	711.0	NA
0	2	20	M	Filler	123	6	student	2	51.0	NA
0	2	20	M	Filler	123	6	and	3	67.0	NA
0	2	20	M	Filler	123	6	professor	4	34.0	NA
0	2	20	M	Filler	123	6	went	5	48.0	NA
0	2	20	M	Filler	123	6	for	6	50.0	NA
0	2	20	M	Filler	123	6	a	7	51.0	NA
0	2	20	M	Filler	123	6	walk	8	50.0	NA
0	2	20	M	Filler	123	6	last	9	50.0	NA
0	2	20	M	Filler	123	6	Tuesday.	10	66.0	NA
0	2	20	M	Question	123	6	NA	NA	911.0	0
1	2	20	M	Filler	110	6	While	1	279.0	NA
1	2	20	M	Filler	110	6	the	2	84.0	NA
1	2	20	M	Filler	110	6	lawyer	3	49.0	NA
1	2	20	M	Filler	110	6	was	4	66.0	NA
1	2	20	M	Filler	110	6	reading	5	34.0	NA
1	2	20	M	Filler	110	6	the	6	33.0	NA
1	2	20	M	Filler	110	6	will	7	66.0	NA
1	2	20	M	Filler	110	6	the	8	66.0	NA
1	2	20	M	Filler	110	6	contract	9	52.0	NA
1	2	20	M	Filler	110	6	remained	10	83.0	NA
1	2	20	M	Filler	110	6	on	11	50.0	NA
1	2	20	M	Filler	110	6	the	12	83.0	NA
1	2	20	M	Filler	110	6	desk.	13	84.0	NA
1	2	20	M	Question	110	6	NA	NA	693.0	1
2	2	20	M	swets	7	2	The	1	278.0	NA
2	2	20	M	swets	7	2	nephew	2	83.0	NA
2	2	20	M	swets	7	2	of	3	51.0	NA
2	2	20	M	swets	7	2	the	4	51.0	NA
2	2	20	M	swets	7	2	waitress	5	50.0	NA
2	2	20	M	swets	7	2	who	6	67.0	NA
2	2	20	M	swets	7	2	hurt	7	65.0	NA
2	2	20	M	swets	7	2	herself	8	67.0	NA
2	2	20	M	swets	7	2	on	9	50.0	NA
2	2	20	M	swets	7	2	the	10	51.0	NA
2	2	20	M	swets	7	2	bicycle	11	82.0	NA
2	2	20	M	swets	7	2	was	12	52.0	NA
2	2	20	M	swets	7	2	angry	13	82.0	NA
2	2	20	M	swets	7	2	about	14	50.0	NA
2	2	20	M	swets	7	2	the	15	51.0	NA
2	2	20	M	swets	7	2	incident.	16	116.0	NA
2	2	20	M	Question	7	2	NA	NA	1025.0	0
3	2	20	M	Filler	120	6	Sarah	1	229.0	NA
3	2	20	M	Filler	120	6	won't	2	84.0	NA
3	2	20	M	Filler	120	6	reveal	3	67.0	NA
3	2	20	M	Filler	120	6	which	4	65.0	NA
3	2	20	M	Filler	120	6	race	5	67.0	NA
3	2	20	M	Filler	120	6	she	6	51.0	NA
3	2	20	M	Filler	120	6	won	7	50.0	NA
3	2	20	M	Filler	120	6	without	8	50.0	NA
3	2	20	M	Filler	120	6	entering	9	65.0	NA
3	2	20	M	Filler	120	6	the	10	35.0	NA
3	2	20	M	Filler	120	6	competition	11	67.0	NA
3	2	20	M	Filler	120	6	for	12	66.0	NA
3	2	20	M	Filler	120	6	officially.	13	84.0	NA
3	2	20	M	Question	120	6	NA	NA	1127.0	1
4	2	20	M	Filler	41	4	While	1	245.0	NA
4	2	20	M	Filler	41	4	the	2	51.0	NA
4	2	20	M	Filler	41	4	babysitter	3	81.0	NA
4	2	20	M	Filler	41	4	watched	4	51.0	NA
4	2	20	M	Filler	41	4	soap	5	50.0	NA
4	2	20	M	Filler	41	4	operas	6	67.0	NA
4	2	20	M	Filler	41	4	the	7	66.0	NA
4	2	20	M	Filler	41	4	child	8	67.0	NA
4	2	20	M	Filler	41	4	poured	9	83.0	NA
4	2	20	M	Filler	41	4	honey	10	50.0	NA
4	2	20	M	Filler	41	4	all	11	83.0	NA
4	2	20	M	Filler	41	4	over	12	67.0	NA
4	2	20	M	Filler	41	4	the	13	84.0	NA
4	2	20	M	Filler	41	4	floor.	14	116.0	NA
4	2	20	M	Question	41	4	NA	NA	960.0	1
5	2	20	M	swets	12	1	The	1	245.0	NA
5	2	20	M	swets	12	1	maid	2	68.0	NA
5	2	20	M	swets	12	1	of	3	67.0	NA
5	2	20	M	swets	12	1	the	4	67.0	NA
5	2	20	M	swets	12	1	princess	5	50.0	NA
5	2	20	M	swets	12	1	who	6	48.0	NA
5	2	20	M	swets	12	1	scratched	7	35.0	NA
5	2	20	M	swets	12	1	herself	8	66.0	NA
5	2	20	M	swets	12	1	in	9	51.0	NA
5	2	20	M	swets	12	1	public	10	34.0	NA
5	2	20	M	swets	12	1	was	11	81.0	NA
5	2	20	M	swets	12	1	terribly	12	35.0	NA
5	2	20	M	swets	12	1	humiliated.	13	66.0	NA
5	2	20	M	Question	12	1	NA	NA	1293.0	1
6	2	20	M	Filler	112	6	As	1	196.0	NA
6	2	20	M	Filler	112	6	the	2	100.0	NA
6	2	20	M	Filler	112	6	dog	3	67.0	NA
6	2	20	M	Filler	112	6	was	4	66.0	NA
6	2	20	M	Filler	112	6	calming	5	51.0	NA
6	2	20	M	Filler	112	6	down	6	67.0	NA
6	2	20	M	Filler	112	6	the	7	48.0	NA
6	2	20	M	Filler	112	6	puppy	8	33.0	NA
6	2	20	M	Filler	112	6	slept	9	67.0	NA
6	2	20	M	Filler	112	6	in	10	34.0	NA
6	2	20	M	Filler	112	6	the	11	67.0	NA
6	2	20	M	Filler	112	6	cage.	12	67.0	NA
6	2	20	M	Question	112	6	NA	NA	528.0	1
7	2	20	M	Filler	85	5	The	1	229.0	NA
7	2	20	M	Filler	85	5	college	2	66.0	NA
7	2	20	M	Filler	85	5	students	3	50.0	NA
7	2	20	M	Filler	85	5	were	4	182.0	NA
7	2	20	M	Filler	85	5	upset	5	36.0	NA
7	2	20	M	Filler	85	5	that	6	33.0	NA
7	2	20	M	Filler	85	5	they	7	34.0	NA
7	2	20	M	Filler	85	5	had	8	34.0	NA
7	2	20	M	Filler	85	5	an	9	32.0	NA
7	2	20	M	Filler	85	5	exam	10	50.0	NA
7	2	20	M	Filler	85	5	the	11	34.0	NA
7	2	20	M	Filler	85	5	next	12	32.0	NA
7	2	20	M	Filler	85	5	day.	13	34.0	NA
7	2	20	M	Question	85	5	NA	NA	795.0	1
8	2	20	M	Filler	143	7	The	1	394.0	NA
8	2	20	M	Filler	143	7	lawyer	2	83.0	NA
8	2	20	M	Filler	143	7	and	3	100.0	NA
8	2	20	M	Filler	143	7	defendant	4	50.0	NA
8	2	20	M	Filler	143	7	whispered	5	50.0	NA
8	2	20	M	Filler	143	7	furiously	6	33.0	NA
8	2	20	M	Filler	143	7	during	7	51.0	NA
8	2	20	M	Filler	143	7	the	8	65.0	NA
8	2	20	M	Filler	143	7	recess.	9	51.0	NA
8	2	20	M	Question	143	7	NA	NA	931.0	1
9	2	20	M	Filler	83	5	The	1	312.0	NA
9	2	20	M	Filler	83	5	passengers	2	18.0	NA
9	2	20	M	Filler	83	5	screamed	3	214.0	NA
9	2	20	M	Filler	83	5	as	4	51.0	NA
9	2	20	M	Filler	83	5	the	5	33.0	NA
9	2	20	M	Filler	83	5	plane	6	66.0	NA
9	2	20	M	Filler	83	5	dipped	7	33.0	NA
9	2	20	M	Filler	83	5	and	8	17.0	NA
9	2	20	M	Filler	83	5	the	9	34.0	NA
9	2	20	M	Filler	83	5	pilots	10	50.0	NA
9	2	20	M	Filler	83	5	said	11	34.0	NA
9	2	20	M	Filler	83	5	their	12	65.0	NA
9	2	20	M	Filler	83	5	prayers	13	18.0	NA
9	2	20	M	Filler	83	5	quietly.	14	84.0	NA
9	2	20	M	Question	83	5	NA	NA	826.0	1
10	2	20	M	swets	29	3	The	1	360.0	NA
10	2	20	M	swets	29	3	daughter	2	83.0	NA
10	2	20	M	swets	29	3	of	3	19.0	NA
10	2	20	M	swets	29	3	the	4	16.0	NA
10	2	20	M	swets	29	3	colonel	5	50.0	NA
10	2	20	M	swets	29	3	who	6	17.0	NA
10	2	20	M	swets	29	3	enjoyed	7	33.0	NA
10	2	20	M	swets	29	3	herself	8	50.0	NA
10	2	20	M	swets	29	3	a	9	33.0	NA
10	2	20	M	swets	29	3	lot	10	50.0	NA
10	2	20	M	swets	29	3	was	11	34.0	NA
10	2	20	M	swets	29	3	out	12	34.0	NA
10	2	20	M	swets	29	3	on	13	33.0	NA
10	2	20	M	swets	29	3	the	14	33.0	NA
10	2	20	M	swets	29	3	balcony.	15	50.0	NA
10	2	20	M	Question	29	3	NA	NA	1228.0	1
11	2	20	M	Filler	42	4	After	1	262.0	NA
11	2	20	M	Filler	42	4	dinner	2	32.0	NA
11	2	20	M	Filler	42	4	the	3	51.0	NA
11	2	20	M	Filler	42	4	children	4	33.0	NA
11	2	20	M	Filler	42	4	gathered	5	34.0	NA
11	2	20	M	Filler	42	4	in	6	18.0	NA
11	2	20	M	Filler	42	4	a	7	17.0	NA
11	2	20	M	Filler	42	4	circle	8	48.0	NA
11	2	20	M	Filler	42	4	to	9	16.0	NA
11	2	20	M	Filler	42	4	listen	10	18.0	NA
11	2	20	M	Filler	42	4	to	11	16.0	NA
11	2	20	M	Filler	42	4	their	12	17.0	NA
11	2	20	M	Filler	42	4	grandmother's	13	49.0	NA
11	2	20	M	Filler	42	4	stories	14	118.0	NA
11	2	20	M	Filler	42	4	about	15	83.0	NA
11	2	20	M	Filler	42	4	the	16	35.0	NA
11	2	20	M	Filler	42	4	good	17	100.0	NA
11	2	20	M	Filler	42	4	old	18	117.0	NA
11	2	20	M	Filler	42	4	days.	19	50.0	NA
11	2	20	M	Question	42	4	NA	NA	860.0	1
12	2	20	M	Filler	108	5	The	1	344.0	NA
12	2	20	M	Filler	108	5	museum	2	134.0	NA
12	2	20	M	Filler	108	5	wing	3	32.0	NA
12	2	20	M	Filler	108	5	which	4	84.0	NA
12	2	20	M	Filler	108	5	housed	5	133.0	NA
12	2	20	M	Filler	108	5	all	6	49.0	NA
12	2	20	M	Filler	108	5	the	7	35.0	NA
12	2	20	M	Filler	108	5	Picasso	8	15.0	NA
12	2	20	M	Filler	108	5	paintings	9	17.0	NA
12	2	20	M	Filler	108	5	was	10	34.0	NA
12	2	20	M	Filler	108	5	very	11	34.0	NA
12	2	20	M	Filler	108	5	crowded.	12	33.0	NA
12	2	20	M	Question	108	5	NA	NA	2896.0	1
13	2	20	M	Filler	87	5	The	1	261.0	NA
13	2	20	M	Filler	87	5	car	2	50.0	NA
13	2	20	M	Filler	87	5	chased	3	34.0	NA
13	2	20	M	Filler	87	5	the	4	34.0	NA
13	2	20	M	Filler	87	5	robber	5	33.0	NA
13	2	20	M	Filler	87	5	of	6	33.0	NA
13	2	20	M	Filler	87	5	the	7	34.0	NA
13	2	20	M	Filler	87	5	bank	8	32.0	NA
13	2	20	M	Filler	87	5	into	9	18.0	NA
13	2	20	M	Filler	87	5	a	10	32.0	NA
13	2	20	M	Filler	87	5	narrow	11	34.0	NA
13	2	20	M	Filler	87	5	alley.	12	49.0	NA
13	2	20	M	Question	87	5	NA	NA	794.0	0
14	2	20	M	swets	16	2	The	1	444.0	NA
14	2	20	M	swets	16	2	widow	2	33.0	NA
14	2	20	M	swets	16	2	of	3	68.0	NA
14	2	20	M	swets	16	2	the	4	16.0	NA
14	2	20	M	swets	16	2	general	5	49.0	NA
14	2	20	M	swets	16	2	who	6	18.0	NA
14	2	20	M	swets	16	2	sacrificed	7	34.0	NA
14	2	20	M	swets	16	2	himself	8	50.0	NA
14	2	20	M	swets	16	2	for	9	16.0	NA
14	2	20	M	swets	16	2	the	10	34.0	NA
14	2	20	M	swets	16	2	cause	11	50.0	NA
14	2	20	M	swets	16	2	was	12	16.0	NA
14	2	20	M	swets	16	2	the	13	51.0	NA
14	2	20	M	swets	16	2	subject	14	49.0	NA
14	2	20	M	swets	16	2	of	15	34.0	NA
14	2	20	M	swets	16	2	the	16	17.0	NA
14	2	20	M	swets	16	2	biography.	17	49.0	NA
14	2	20	M	Question	16	2	NA	NA	1026.0	1
15	2	20	M	Filler	141	7	The	1	296.0	NA
15	2	20	M	Filler	141	7	nurse	2	16.0	NA
15	2	20	M	Filler	141	7	and	3	50.0	NA
15	2	20	M	Filler	141	7	custodian	4	34.0	NA
15	2	20	M	Filler	141	7	chatted	5	50.0	NA
15	2	20	M	Filler	141	7	during	6	34.0	NA
15	2	20	M	Filler	141	7	their	7	149.0	NA
15	2	20	M	Filler	141	7	break.	8	18.0	NA
15	2	20	M	Question	141	7	NA	NA	2197.0	0
16	2	20	M	Filler	109	6	While	1	278.0	NA
16	2	20	M	Filler	109	6	the	2	34.0	NA
16	2	20	M	Filler	109	6	farmer	3	67.0	NA
16	2	20	M	Filler	109	6	steered	4	34.0	NA
16	2	20	M	Filler	109	6	the	5	150.0	NA
16	2	20	M	Filler	109	6	truck	6	33.0	NA
16	2	20	M	Filler	109	6	the	7	68.0	NA
16	2	20	M	Filler	109	6	tractor	8	16.0	NA
16	2	20	M	Filler	109	6	pulled	9	50.0	NA
16	2	20	M	Filler	109	6	the	10	32.0	NA
16	2	20	M	Filler	109	6	plough.	11	18.0	NA
16	2	20	M	Question	109	6	NA	NA	960.0	1
17	2	20	M	Filler	67	4	The	1	262.0	NA
17	2	20	M	Filler	67	4	restaurant	2	66.0	NA
17	2	20	M	Filler	67	4	was	3	34.0	NA
17	2	20	M	Filler	67	4	famous	4	16.0	NA
17	2	20	M	Filler	67	4	for	5	34.0	NA
17	2	20	M	Filler	67	4	its	6	16.0	NA
17	2	20	M	Filler	67	4	French	7	33.0	NA
17	2	20	M	Filler	67	4	pastries	8	34.0	NA
17	2	20	M	Filler	67	4	and	9	18.0	NA
17	2	20	M	Filler	67	4	fine	10	33.0	NA
17	2	20	M	Filler	67	4	wines.	11	17.0	NA
17	2	20	M	Question	67	4	NA	NA	812.0	1
18	2	20	M	swets	10	2	The	1	195.0	NA
18	2	20	M	swets	10	2	uncle	2	49.0	NA
18	2	20	M	swets	10	2	of	3	34.0	NA
18	2	20	M	swets	10	2	the	4	33.0	NA
18	2	20	M	swets	10	2	nun	5	32.0	NA
18	2	20	M	swets	10	2	who	6	35.0	NA
18	2	20	M	swets	10	2	lost	7	16.0	NA
18	2	20	M	swets	10	2	herself	8	32.0	NA
18	2	20	M	swets	10	2	in	9	35.0	NA
18	2	20	M	swets	10	2	thought	10	33.0	NA
18	2	20	M	swets	10	2	was	11	33.0	NA
18	2	20	M	swets	10	2	disturbed	12	34.0	NA
18	2	20	M	swets	10	2	by	13	33.0	NA
18	2	20	M	swets	10	2	the	14	33.0	NA
18	2	20	M	swets	10	2	noise.	15	50.0	NA
18	2	20	M	Question	10	2	NA	NA	1063.0	0
19	2	20	M	Filler	77	5	Outside	1	246.0	NA
19	2	20	M	Filler	77	5	the	2	49.0	NA
19	2	20	M	Filler	77	5	courthouse	3	50.0	NA
19	2	20	M	Filler	77	5	the	4	17.0	NA
19	2	20	M	Filler	77	5	committee	5	34.0	NA
19	2	20	M	Filler	77	5	awarded	6	33.0	NA
19	2	20	M	Filler	77	5	a	7	49.0	NA
19	2	20	M	Filler	77	5	lifetime	8	18.0	NA
19	2	20	M	Filler	77	5	achievement	9	33.0	NA
19	2	20	M	Filler	77	5	prize	10	34.0	NA
19	2	20	M	Filler	77	5	to	11	33.0	NA
19	2	20	M	Filler	77	5	the	12	17.0	NA
19	2	20	M	Filler	77	5	creator	13	49.0	NA
19	2	20	M	Filler	77	5	of	14	16.0	NA
19	2	20	M	Filler	77	5	the	15	18.0	NA
19	2	20	M	Filler	77	5	sculpture.	16	32.0	NA
19	2	20	M	Question	77	5	NA	NA	1379.0	1
20	2	20	M	Filler	119	6	Everybody	1	245.0	NA
20	2	20	M	Filler	119	6	is	2	51.0	NA
20	2	20	M	Filler	119	6	wondering	3	48.0	NA
20	2	20	M	Filler	119	6	which	4	18.0	NA
20	2	20	M	Filler	119	6	software	5	49.0	NA
20	2	20	M	Filler	119	6	Gary	6	17.0	NA
20	2	20	M	Filler	119	6	installed	7	18.0	NA
20	2	20	M	Filler	119	6	without	8	33.0	NA
20	2	20	M	Filler	119	6	buying	9	16.0	NA
20	2	20	M	Filler	119	6	last	10	50.0	NA
20	2	20	M	Filler	119	6	June.	11	33.0	NA
20	2	20	M	Question	119	6	NA	NA	1182.0	1
21	2	20	M	Filler	82	5	The	1	446.0	NA
21	2	20	M	Filler	82	5	patient's	2	99.0	NA
21	2	20	M	Filler	82	5	seizures	3	84.0	NA
21	2	20	M	Filler	82	5	appeared	4	51.0	NA
21	2	20	M	Filler	82	5	to	5	67.0	NA
21	2	20	M	Filler	82	5	have	6	50.0	NA
21	2	20	M	Filler	82	5	been	7	66.0	NA
21	2	20	M	Filler	82	5	eliminated	8	67.0	NA
21	2	20	M	Filler	82	5	by	9	51.0	NA
21	2	20	M	Filler	82	5	the	10	65.0	NA
21	2	20	M	Filler	82	5	surgery.	11	66.0	NA
21	2	20	M	Question	82	5	NA	NA	1463.0	1
22	2	20	M	swets	1	2	The	1	395.0	NA
22	2	20	M	swets	1	2	brother	2	50.0	NA
22	2	20	M	swets	1	2	of	3	67.0	NA
22	2	20	M	swets	1	2	the	4	67.0	NA
22	2	20	M	swets	1	2	actress	5	49.0	NA
22	2	20	M	swets	1	2	who	6	52.0	NA
22	2	20	M	swets	1	2	called	7	50.0	NA
22	2	20	M	swets	1	2	attention	8	49.0	NA
22	2	20	M	swets	1	2	to	9	67.0	NA
22	2	20	M	swets	1	2	herself	10	67.0	NA
22	2	20	M	swets	1	2	on	11	67.0	NA
22	2	20	M	swets	1	2	the	12	66.0	NA
22	2	20	M	swets	1	2	balcony	13	67.0	NA
22	2	20	M	swets	1	2	was	14	66.0	NA
22	2	20	M	swets	1	2	under	15	100.0	NA
22	2	20	M	swets	1	2	investigation.	16	83.0	NA
22	2	20	M	Question	1	2	NA	NA	1194.0	0
23	2	20	M	Filler	101	5	The	1	328.0	NA
23	2	20	M	Filler	101	5	friendly	2	51.0	NA
23	2	20	M	Filler	101	5	woman	3	49.0	NA
23	2	20	M	Filler	101	5	was	4	50.0	NA
23	2	20	M	Filler	101	5	insulted	5	50.0	NA
23	2	20	M	Filler	101	5	by	6	33.0	NA
23	2	20	M	Filler	101	5	the	7	51.0	NA
23	2	20	M	Filler	101	5	rude	8	34.0	NA
23	2	20	M	Filler	101	5	stranger	9	33.0	NA
23	2	20	M	Filler	101	5	because	10	49.0	NA
23	2	20	M	Filler	101	5	he	11	33.0	NA
23	2	20	M	Filler	101	5	didn't	12	18.0	NA
23	2	20	M	Filler	101	5	smile	13	48.0	NA
23	2	20	M	Filler	101	5	at	14	18.0	NA
23	2	20	M	Filler	101	5	her.	15	218.0	NA
23	2	20	M	Question	101	5	NA	NA	726.0	0
24	2	20	M	Filler	100	5	There	1	280.0	NA
24	2	20	M	Filler	100	5	was	2	83.0	NA
24	2	20	M	Filler	100	5	a	3	49.0	NA
24	2	20	M	Filler	100	5	large	4	67.0	NA
24	2	20	M	Filler	100	5	sale	5	66.0	NA
24	2	20	M	Filler	100	5	on	6	34.0	NA
24	2	20	M	Filler	100	5	stationary	7	83.0	NA
24	2	20	M	Filler	100	5	and	8	50.0	NA
24	2	20	M	Filler	100	5	office	9	51.0	NA
24	2	20	M	Filler	100	5	supplies	10	66.0	NA
24	2	20	M	Filler	100	5	at	11	51.0	NA
24	2	20	M	Filler	100	5	the	12	50.0	NA
24	2	20	M	Filler	100	5	student	13	67.0	NA
24	2	20	M	Filler	100	5	bookstore.	14	66.0	NA
24	2	20	M	Question	100	5	NA	NA	1362.0	1
25	2	20	M	Filler	38	4	Despite	1	112.0	NA
25	2	20	M	Filler	38	4	the	2	48.0	NA
25	2	20	M	Filler	38	4	lack	3	85.0	NA
25	2	20	M	Filler	38	4	of	4	65.0	NA
25	2	20	M	Filler	38	4	publicity	5	67.0	NA
25	2	20	M	Filler	38	4	many	6	34.0	NA
25	2	20	M	Filler	38	4	people	7	67.0	NA
25	2	20	M	Filler	38	4	attended	8	84.0	NA
25	2	20	M	Filler	38	4	the	9	17.0	NA
25	2	20	M	Filler	38	4	lecture.	10	82.0	NA
25	2	20	M	Question	38	4	NA	NA	831.0	1
26	2	20	M	Filler	79	5	Although	1	277.0	NA
26	2	20	M	Filler	79	5	the	2	67.0	NA
26	2	20	M	Filler	79	5	mechanic	3	168.0	NA
26	2	20	M	Filler	79	5	said	4	50.0	NA
26	2	20	M	Filler	79	5	the	5	34.0	NA
26	2	20	M	Filler	79	5	job	6	32.0	NA
26	2	20	M	Filler	79	5	would	7	51.0	NA
26	2	20	M	Filler	79	5	take	8	150.0	NA
26	2	20	M	Filler	79	5	four	9	17.0	NA
26	2	20	M	Filler	79	5	days	10	49.0	NA
26	2	20	M	Filler	79	5	the	11	16.0	NA
26	2	20	M	Filler	79	5	client	12	51.0	NA
26	2	20	M	Filler	79	5	didn't	13	34.0	NA
26	2	20	M	Filler	79	5	receive	14	66.0	NA
26	2	20	M	Filler	79	5	her	15	84.0	NA
26	2	20	M	Filler	79	5	car	16	83.0	NA
26	2	20	M	Filler	79	5	for	17	84.0	NA
26	2	20	M	Filler	79	5	six	18	181.0	NA
26	2	20	M	Filler	79	5	weeks.	19	102.0	NA
26	2	20	M	Question	79	5	NA	NA	820.0	1
27	2	20	M	Filler	89	5	Jim	1	262.0	NA
27	2	20	M	Filler	89	5	watered	2	67.0	NA
27	2	20	M	Filler	89	5	the	3	49.0	NA
27	2	20	M	Filler	89	5	tropical	4	17.0	NA
27	2	20	M	Filler	89	5	plants	5	50.0	NA
27	2	20	M	Filler	89	5	of	6	16.0	NA
27	2	20	M	Filler	89	5	his	7	17.0	NA
27	2	20	M	Filler	89	5	neighbor	8	33.0	NA
27	2	20	M	Filler	89	5	because	9	35.0	NA
27	2	20	M	Filler	89	5	she	10	33.0	NA
27	2	20	M	Filler	89	5	had	11	49.0	NA
27	2	20	M	Filler	89	5	gone	12	18.0	NA
27	2	20	M	Filler	89	5	out	13	48.0	NA
27	2	20	M	Filler	89	5	of	14	18.0	NA
27	2	20	M	Filler	89	5	town	15	49.0	NA
27	2	20	M	Filler	89	5	for	16	50.0	NA
27	2	20	M	Filler	89	5	a	17	51.0	NA
27	2	20	M	Filler	89	5	few	18	66.0	NA
27	2	20	M	Filler	89	5	days.	19	50.0	NA
27	2	20	M	Question	89	5	NA	NA	976.0	1
28	2	20	M	swets	23	3	The	1	279.0	NA
28	2	20	M	swets	23	3	father	2	50.0	NA
28	2	20	M	swets	23	3	of	3	49.0	NA
28	2	20	M	swets	23	3	the	4	34.0	NA
28	2	20	M	swets	23	3	ballerina	5	18.0	NA
28	2	20	M	swets	23	3	who	6	15.0	NA
28	2	20	M	swets	23	3	found	7	34.0	NA
28	2	20	M	swets	23	3	himself	8	17.0	NA
28	2	20	M	swets	23	3	in	9	16.0	NA
28	2	20	M	swets	23	3	a	10	34.0	NA
28	2	20	M	swets	23	3	lot	11	33.0	NA
28	2	20	M	swets	23	3	of	12	33.0	NA
28	2	20	M	swets	23	3	trouble	13	33.0	NA
28	2	20	M	swets	23	3	phoned	14	17.0	NA
28	2	20	M	swets	23	3	the	15	18.0	NA
28	2	20	M	swets	23	3	police.	16	33.0	NA
28	2	20	M	Question	23	3	NA	NA	1360.0	1
29	2	20	M	Filler	122	6	They	1	278.0	NA
29	2	20	M	Filler	122	6	don't	2	51.0	NA
29	2	20	M	Filler	122	6	know	3	34.0	NA
29	2	20	M	Filler	122	6	which	4	132.0	NA
29	2	20	M	Filler	122	6	family	5	17.0	NA
29	2	20	M	Filler	122	6	the	6	49.0	NA
29	2	20	M	Filler	122	6	hijackers	7	17.0	NA
29	2	20	M	Filler	122	6	held	8	49.0	NA
29	2	20	M	Filler	122	6	hostage	9	18.0	NA
29	2	20	M	Filler	122	6	but	10	16.0	NA
29	2	20	M	Filler	122	6	didn't	11	32.0	NA
29	2	20	M	Filler	122	6	hurt	12	34.0	NA
29	2	20	M	Filler	122	6	the	13	150.0	NA
29	2	20	M	Filler	122	6	children	14	33.0	NA
29	2	20	M	Filler	122	6	of	15	67.0	NA
29	2	20	M	Filler	122	6	too	16	134.0	NA
29	2	20	M	Filler	122	6	much.	17	32.0	NA
29	2	20	M	Question	122	6	NA	NA	861.0	0
30	2	20	M	swets	26	3	The	1	262.0	NA
30	2	20	M	swets	26	3	grand-niece	2	83.0	NA
30	2	20	M	swets	26	3	of	3	34.0	NA
30	2	20	M	swets	26	3	the	4	32.0	NA
30	2	20	M	swets	26	3	admiral	5	34.0	NA
30	2	20	M	swets	26	3	who	6	34.0	NA
30	2	20	M	swets	26	3	wrote	7	50.0	NA
30	2	20	M	swets	26	3	herself	8	33.0	NA
30	2	20	M	swets	26	3	a	9	32.0	NA
30	2	20	M	swets	26	3	note	10	33.0	NA
30	2	20	M	swets	26	3	admired	11	36.0	NA
30	2	20	M	swets	26	3	sailors	12	48.0	NA
30	2	20	M	swets	26	3	very	13	17.0	NA
30	2	20	M	swets	26	3	much.	14	33.0	NA
30	2	20	M	Question	26	3	NA	NA	2896.0	1
31	2	20	M	Filler	51	4	The	1	394.0	NA
31	2	20	M	Filler	51	4	students	2	52.0	NA
31	2	20	M	Filler	51	4	were	3	49.0	NA
31	2	20	M	Filler	51	4	in	4	51.0	NA
31	2	20	M	Filler	51	4	a	5	50.0	NA
31	2	20	M	Filler	51	4	frenzy	6	49.0	NA
31	2	20	M	Filler	51	4	because	7	33.0	NA
31	2	20	M	Filler	51	4	they	8	51.0	NA
31	2	20	M	Filler	51	4	wanted	9	49.0	NA
31	2	20	M	Filler	51	4	tickets	10	17.0	NA
31	2	20	M	Filler	51	4	for	11	18.0	NA
31	2	20	M	Filler	51	4	the	12	32.0	NA
31	2	20	M	Filler	51	4	game	13	32.0	NA
31	2	20	M	Filler	51	4	tonight.	14	17.0	NA
31	2	20	M	Question	51	4	NA	NA	795.0	1
32	2	20	M	Filler	81	5	The	1	278.0	NA
32	2	20	M	Filler	81	5	stubborn	2	83.0	NA
32	2	20	M	Filler	81	5	old	3	33.0	NA
32	2	20	M	Filler	81	5	man	4	52.0	NA
32	2	20	M	Filler	81	5	criticized	5	33.0	NA
32	2	20	M	Filler	81	5	everything	6	148.0	NA
32	2	20	M	Filler	81	5	that	7	84.0	NA
32	2	20	M	Filler	81	5	the	8	118.0	NA
32	2	20	M	Filler	81	5	young	9	49.0	NA
32	2	20	M	Filler	81	5	student	10	34.0	NA
32	2	20	M	Filler	81	5	did.	11	150.0	NA
32	2	20	M	Question	81	5	NA	NA	896.0	1
33	2	20	M	Filler	66	4	The	1	244.0	NA
33	2	20	M	Filler	66	4	rare	2	67.0	NA
33	2	20	M	Filler	66	4	and	3	17.0	NA
33	2	20	M	Filler	66	4	exotic	4	33.0	NA
33	2	20	M	Filler	66	4	monkey	5	33.0	NA
33	2	20	M	Filler	66	4	was	6	133.0	NA
33	2	20	M	Filler	66	4	the	7	17.0	NA
33	2	20	M	Filler	66	4	center	8	34.0	NA
33	2	20	M	Filler	66	4	of	9	32.0	NA
33	2	20	M	Filler	66	4	attention	10	33.0	NA
33	2	20	M	Filler	66	4	at	11	18.0	NA
33	2	20	M	Filler	66	4	the	12	34.0	NA
33	2	20	M	Filler	66	4	zoo.	13	33.0	NA
33	2	20	M	Question	66	4	NA	NA	1145.0	1
34	2	20	M	Filler	48	4	The	1	229.0	NA
34	2	20	M	Filler	48	4	police	2	116.0	NA
34	2	20	M	Filler	48	4	arrested	3	34.0	NA
34	2	20	M	Filler	48	4	the	4	50.0	NA
34	2	20	M	Filler	48	4	sister	5	34.0	NA
34	2	20	M	Filler	48	4	of	6	17.0	NA
34	2	20	M	Filler	48	4	the	7	32.0	NA
34	2	20	M	Filler	48	4	handyman	8	33.0	NA
34	2	20	M	Filler	48	4	after	9	18.0	NA
34	2	20	M	Filler	48	4	she	10	133.0	NA
34	2	20	M	Filler	48	4	recently	11	16.0	NA
34	2	20	M	Filler	48	4	gave	12	34.0	NA
34	2	20	M	Filler	48	4	birth	13	32.0	NA
34	2	20	M	Filler	48	4	to	14	34.0	NA
34	2	20	M	Filler	48	4	twins.	15	33.0	NA
34	2	20	M	Question	48	4	NA	NA	795.0	1
35	2	20	M	Filler	121	6	The	1	311.0	NA
35	2	20	M	Filler	121	6	ecologist	2	34.0	NA
35	2	20	M	Filler	121	6	wondered	3	51.0	NA
35	2	20	M	Filler	121	6	which	4	16.0	NA
35	2	20	M	Filler	121	6	plants	5	50.0	NA
35	2	20	M	Filler	121	6	the	6	50.0	NA
35	2	20	M	Filler	121	6	scientist	7	34.0	NA
35	2	20	M	Filler	121	6	grew	8	31.0	NA
35	2	20	M	Filler	121	6	but	9	35.0	NA
35	2	20	M	Filler	121	6	didn't	10	17.0	NA
35	2	20	M	Filler	121	6	modify	11	32.0	NA
35	2	20	M	Filler	121	6	the	12	18.0	NA
35	2	20	M	Filler	121	6	seeds	13	32.0	NA
35	2	20	M	Filler	121	6	of	14	18.0	NA
35	2	20	M	Filler	121	6	in	15	15.0	NA
35	2	20	M	Filler	121	6	the	16	34.0	NA
35	2	20	M	Filler	121	6	lab.	17	66.0	NA
35	2	20	M	Question	121	6	NA	NA	967.0	1
36	2	20	M	Filler	134	7	As	1	295.0	NA
36	2	20	M	Filler	134	7	Shawnie	2	67.0	NA
36	2	20	M	Filler	134	7	and	3	48.0	NA
36	2	20	M	Filler	134	7	Nick	4	19.0	NA
36	2	20	M	Filler	134	7	were	5	33.0	NA
36	2	20	M	Filler	134	7	embracing	6	49.0	NA
36	2	20	M	Filler	134	7	the	7	35.0	NA
36	2	20	M	Filler	134	7	doctor	8	49.0	NA
36	2	20	M	Filler	134	7	the	9	50.0	NA
36	2	20	M	Filler	134	7	visitor	10	16.0	NA
36	2	20	M	Filler	134	7	entered	11	17.0	NA
36	2	20	M	Filler	134	7	the	12	84.0	NA
36	2	20	M	Filler	134	7	room.	13	16.0	NA
36	2	20	M	Question	134	7	NA	NA	2129.0	1
37	2	20	M	swets	22	2	The	1	411.0	NA
37	2	20	M	swets	22	2	niece	2	51.0	NA
37	2	20	M	swets	22	2	of	3	67.0	NA
37	2	20	M	swets	22	2	the	4	50.0	NA
37	2	20	M	swets	22	2	commander	5	17.0	NA
37	2	20	M	swets	22	2	who	6	50.0	NA
37	2	20	M	swets	22	2	calmed	7	48.0	NA
37	2	20	M	swets	22	2	himself	8	35.0	NA
37	2	20	M	swets	22	2	after	9	49.0	NA
37	2	20	M	swets	22	2	the	10	51.0	NA
37	2	20	M	swets	22	2	tragedy	11	34.0	NA
37	2	20	M	swets	22	2	was	12	49.0	NA
37	2	20	M	swets	22	2	waiting	13	50.0	NA
37	2	20	M	swets	22	2	for	14	50.0	NA
37	2	20	M	swets	22	2	the	15	34.0	NA
37	2	20	M	swets	22	2	doctor.	16	50.0	NA
37	2	20	M	Question	22	2	NA	NA	1194.0	1
38	2	20	M	Filler	132	7	While	1	278.0	NA
38	2	20	M	Filler	132	7	John	2	51.0	NA
38	2	20	M	Filler	132	7	and	3	33.0	NA
38	2	20	M	Filler	132	7	Mary	4	32.0	NA
38	2	20	M	Filler	132	7	kissed	5	18.0	NA
38	2	20	M	Filler	132	7	their	6	33.0	NA
38	2	20	M	Filler	132	7	daughter	7	33.0	NA
38	2	20	M	Filler	132	7	fell	8	34.0	NA
38	2	20	M	Filler	132	7	asleep.	9	50.0	NA
38	2	20	M	Question	132	7	NA	NA	2897.0	1
39	2	20	M	Filler	63	4	The	1	313.0	NA
39	2	20	M	Filler	63	4	bride	2	65.0	NA
39	2	20	M	Filler	63	4	was	3	34.0	NA
39	2	20	M	Filler	63	4	devastated	4	49.0	NA
39	2	20	M	Filler	63	4	to	5	51.0	NA
39	2	20	M	Filler	63	4	lose	6	33.0	NA
39	2	20	M	Filler	63	4	her	7	49.0	NA
39	2	20	M	Filler	63	4	gold	8	18.0	NA
39	2	20	M	Filler	63	4	ring	9	34.0	NA
39	2	20	M	Filler	63	4	with	10	33.0	NA
39	2	20	M	Filler	63	4	a	11	33.0	NA
39	2	20	M	Filler	63	4	gleaming	12	16.0	NA
39	2	20	M	Filler	63	4	diamond	13	34.0	NA
39	2	20	M	Filler	63	4	in	14	34.0	NA
39	2	20	M	Filler	63	4	the	15	16.0	NA
39	2	20	M	Filler	63	4	middle.	16	50.0	NA
39	2	20	M	Question	63	4	NA	NA	894.0	1
40	2	20	M	swets	5	3	The	1	311.0	NA
40	2	20	M	swets	5	3	aunt	2	34.0	NA
40	2	20	M	swets	5	3	of	3	33.0	NA
40	2	20	M	swets	5	3	the	4	18.0	NA
40	2	20	M	swets	5	3	bishop	5	48.0	NA
40	2	20	M	swets	5	3	who	6	18.0	NA
40	2	20	M	swets	5	3	injured	7	149.0	NA
40	2	20	M	swets	5	3	herself	8	34.0	NA
40	2	20	M	swets	5	3	last	9	17.0	NA
40	2	20	M	swets	5	3	summer	10	33.0	NA
40	2	20	M	swets	5	3	was	11	52.0	NA
40	2	20	M	swets	5	3	concerned	12	148.0	NA
40	2	20	M	swets	5	3	about	13	17.0	NA
40	2	20	M	swets	5	3	the	14	34.0	NA
40	2	20	M	swets	5	3	infection.	15	84.0	NA
40	2	20	M	Question	5	3	NA	NA	1927.0	1
41	2	20	M	Filler	71	4	The	1	530.0	NA
41	2	20	M	Filler	71	4	elderly	2	100.0	NA
41	2	20	M	Filler	71	4	woman	3	82.0	NA
41	2	20	M	Filler	71	4	locked	4	84.0	NA
41	2	20	M	Filler	71	4	and	5	84.0	NA
41	2	20	M	Filler	71	4	bolted	6	82.0	NA
41	2	20	M	Filler	71	4	her	7	66.0	NA
41	2	20	M	Filler	71	4	door	8	50.0	NA
41	2	20	M	Filler	71	4	every	9	51.0	NA
41	2	20	M	Filler	71	4	night	10	68.0	NA
41	2	20	M	Filler	71	4	after	11	50.0	NA
41	2	20	M	Filler	71	4	the	12	166.0	NA
41	2	20	M	Filler	71	4	robbers	13	67.0	NA
41	2	20	M	Filler	71	4	took	14	99.0	NA
41	2	20	M	Filler	71	4	her	15	83.0	NA
41	2	20	M	Filler	71	4	best	16	84.0	NA
41	2	20	M	Filler	71	4	pearls.	17	83.0	NA
41	2	20	M	Question	71	4	NA	NA	911.0	1
42	2	20	M	Filler	124	6	The	1	295.0	NA
42	2	20	M	Filler	124	6	mothers	2	51.0	NA
42	2	20	M	Filler	124	6	and	3	49.0	NA
42	2	20	M	Filler	124	6	teachers	4	134.0	NA
42	2	20	M	Filler	124	6	played	5	17.0	NA
42	2	20	M	Filler	124	6	tennis	6	33.0	NA
42	2	20	M	Filler	124	6	after	7	32.0	NA
42	2	20	M	Filler	124	6	the	8	34.0	NA
42	2	20	M	Filler	124	6	kids	9	17.0	NA
42	2	20	M	Filler	124	6	left.	10	17.0	NA
42	2	20	M	Question	124	6	NA	NA	963.0	1
43	2	20	M	Filler	138	7	While	1	262.0	NA
43	2	20	M	Filler	138	7	Pedro	2	49.0	NA
43	2	20	M	Filler	138	7	was	3	17.0	NA
43	2	20	M	Filler	138	7	swimming	4	18.0	NA
43	2	20	M	Filler	138	7	the	5	33.0	NA
43	2	20	M	Filler	138	7	lifeguard	6	117.0	NA
43	2	20	M	Filler	138	7	sat	7	31.0	NA
43	2	20	M	Filler	138	7	in	8	118.0	NA
43	2	20	M	Filler	138	7	his	9	16.0	NA
43	2	20	M	Filler	138	7	chair.	10	33.0	NA
43	2	20	M	Question	138	7	NA	NA	829.0	0
44	2	20	M	swets	13	2	The	1	246.0	NA
44	2	20	M	swets	13	2	great-aunt	2	33.0	NA
44	2	20	M	swets	13	2	of	3	32.0	NA
44	2	20	M	swets	13	2	the	4	34.0	NA
44	2	20	M	swets	13	2	policeman	5	17.0	NA
44	2	20	M	swets	13	2	who	6	32.0	NA
44	2	20	M	swets	13	2	treated	7	34.0	NA
44	2	20	M	swets	13	2	himself	8	19.0	NA
44	2	20	M	swets	13	2	after	9	31.0	NA
44	2	20	M	swets	13	2	the	10	18.0	NA
44	2	20	M	swets	13	2	accident	11	34.0	NA
44	2	20	M	swets	13	2	was	12	32.0	NA
44	2	20	M	swets	13	2	watching	13	18.0	NA
44	2	20	M	swets	13	2	the	14	48.0	NA
44	2	20	M	swets	13	2	news.	15	17.0	NA
44	2	20	M	Question	13	2	NA	NA	3192.0	1
45	2	20	M	Filler	84	5	While	1	329.0	NA
45	2	20	M	Filler	84	5	talking	2	65.0	NA
45	2	20	M	Filler	84	5	to	3	34.0	NA
45	2	20	M	Filler	84	5	his	4	32.0	NA
45	2	20	M	Filler	84	5	sister	5	18.0	NA
45	2	20	M	Filler	84	5	the	6	34.0	NA
45	2	20	M	Filler	84	5	bishop	7	31.0	NA
45	2	20	M	Filler	84	5	with	8	17.0	NA
45	2	20	M	Filler	84	5	the	9	18.0	NA
45	2	20	M	Filler	84	5	funny	10	50.0	NA
45	2	20	M	Filler	84	5	eyebrows	11	32.0	NA
45	2	20	M	Filler	84	5	advocated	12	17.0	NA
45	2	20	M	Filler	84	5	strange	13	34.0	NA
45	2	20	M	Filler	84	5	beliefs.	14	150.0	NA
45	2	20	M	Question	84	5	NA	NA	1363.0	1
46	2	20	M	swets	30	1	The	1	278.0	NA
46	2	20	M	swets	30	1	maid	2	50.0	NA
46	2	20	M	swets	30	1	of	3	51.0	NA
46	2	20	M	swets	30	1	the	4	65.0	NA
46	2	20	M	swets	30	1	baroness	5	35.0	NA
46	2	20	M	swets	30	1	who	6	150.0	NA
46	2	20	M	swets	30	1	prepared	7	17.0	NA
46	2	20	M	swets	30	1	herself	8	49.0	NA
46	2	20	M	swets	30	1	very	9	51.0	NA
46	2	20	M	swets	30	1	thoroughly	10	82.0	NA
46	2	20	M	swets	30	1	came	11	17.0	NA
46	2	20	M	swets	30	1	from	12	18.0	NA
46	2	20	M	swets	30	1	the	13	66.0	NA
46	2	20	M	swets	30	1	south.	14	34.0	NA
46	2	20	M	Question	30	1	NA	NA	1827.0	0
47	2	20	M	Filler	78	5	The	1	277.0	NA
47	2	20	M	Filler	78	5	customer	2	50.0	NA
47	2	20	M	Filler	78	5	complimented	3	51.0	NA
47	2	20	M	Filler	78	5	the	4	33.0	NA
47	2	20	M	Filler	78	5	store	5	34.0	NA
47	2	20	M	Filler	78	5	keeper	6	17.0	NA
47	2	20	M	Filler	78	5	with	7	65.0	NA
47	2	20	M	Filler	78	5	the	8	18.0	NA
47	2	20	M	Filler	78	5	new	9	34.0	NA
47	2	20	M	Filler	78	5	stock.	10	32.0	NA
47	2	20	M	Question	78	5	NA	NA	963.0	1
48	2	20	M	Filler	65	4	Even	1	262.0	NA
48	2	20	M	Filler	65	4	though	2	51.0	NA
48	2	20	M	Filler	65	4	the	3	65.0	NA
48	2	20	M	Filler	65	4	goalie	4	18.0	NA
48	2	20	M	Filler	65	4	had	5	34.0	NA
48	2	20	M	Filler	65	4	a	6	16.0	NA
48	2	20	M	Filler	65	4	bad	7	16.0	NA
48	2	20	M	Filler	65	4	cold	8	34.0	NA
48	2	20	M	Filler	65	4	the	9	33.0	NA
48	2	20	M	Filler	65	4	team	10	33.0	NA
48	2	20	M	Filler	65	4	was	11	35.0	NA
48	2	20	M	Filler	65	4	preparing	12	49.0	NA
48	2	20	M	Filler	65	4	for	13	16.0	NA
48	2	20	M	Filler	65	4	the	14	51.0	NA
48	2	20	M	Filler	65	4	tournament.	15	32.0	NA
48	2	20	M	Question	65	4	NA	NA	1094.0	1
49	2	20	M	Filler	116	6	As	1	279.0	NA
49	2	20	M	Filler	116	6	the	2	67.0	NA
49	2	20	M	Filler	116	6	survivors	3	33.0	NA
49	2	20	M	Filler	116	6	were	4	149.0	NA
49	2	20	M	Filler	116	6	embracing	5	17.0	NA
49	2	20	M	Filler	116	6	the	6	34.0	NA
49	2	20	M	Filler	116	6	firefighter	7	33.0	NA
49	2	20	M	Filler	116	6	coughed	8	33.0	NA
49	2	20	M	Filler	116	6	violently.	9	34.0	NA
49	2	20	M	Question	116	6	NA	NA	896.0	1
50	2	20	M	swets	19	2	The	1	430.0	NA
50	2	20	M	swets	19	2	mistress	2	50.0	NA
50	2	20	M	swets	19	2	of	3	33.0	NA
50	2	20	M	swets	19	2	the	4	184.0	NA
50	2	20	M	swets	19	2	actor	5	166.0	NA
50	2	20	M	swets	19	2	who	6	67.0	NA
50	2	20	M	swets	19	2	hated	7	100.0	NA
50	2	20	M	swets	19	2	himself	8	67.0	NA
50	2	20	M	swets	19	2	for	9	82.0	NA
50	2	20	M	swets	19	2	lying	10	84.0	NA
50	2	20	M	swets	19	2	left	11	216.0	NA
50	2	20	M	swets	19	2	town	12	51.0	NA
50	2	20	M	swets	19	2	in	13	100.0	NA
50	2	20	M	swets	19	2	a	14	282.0	NA
50	2	20	M	swets	19	2	hurry.	15	235.0	NA
50	2	20	M	Question	19	2	NA	NA	1761.0	0
51	2	20	M	Filler	136	7	While	1	262.0	NA
51	2	20	M	Filler	136	7	Mark	2	82.0	NA
51	2	20	M	Filler	136	7	and	3	68.0	NA
51	2	20	M	Filler	136	7	Jenny	4	16.0	NA
51	2	20	M	Filler	136	7	were	5	50.0	NA
51	2	20	M	Filler	136	7	cuddling	6	33.0	NA
51	2	20	M	Filler	136	7	the	7	16.0	NA
51	2	20	M	Filler	136	7	older	8	18.0	NA
51	2	20	M	Filler	136	7	dogs	9	34.0	NA
51	2	20	M	Filler	136	7	the	10	16.0	NA
51	2	20	M	Filler	136	7	puppies	11	49.0	NA
51	2	20	M	Filler	136	7	nipped	12	17.0	NA
51	2	20	M	Filler	136	7	at	13	17.0	NA
51	2	20	M	Filler	136	7	their	14	49.0	NA
51	2	20	M	Filler	136	7	feet.	15	201.0	NA
51	2	20	M	Question	136	7	NA	NA	1044.0	1
52	2	20	M	swets	27	1	The	1	278.0	NA
52	2	20	M	swets	27	1	brother	2	83.0	NA
52	2	20	M	swets	27	1	of	3	50.0	NA
52	2	20	M	swets	27	1	the	4	16.0	NA
52	2	20	M	swets	27	1	butcher	5	33.0	NA
52	2	20	M	swets	27	1	who	6	19.0	NA
52	2	20	M	swets	27	1	invited	7	16.0	NA
52	2	20	M	swets	27	1	himself	8	16.0	NA
52	2	20	M	swets	27	1	to	9	33.0	NA
52	2	20	M	swets	27	1	the	10	18.0	NA
52	2	20	M	swets	27	1	party	11	33.0	NA
52	2	20	M	swets	27	1	enjoyed	12	16.0	NA
52	2	20	M	swets	27	1	it	13	18.0	NA
52	2	20	M	swets	27	1	quite	14	31.0	NA
52	2	20	M	swets	27	1	a	15	33.0	NA
52	2	20	M	swets	27	1	bit.	16	18.0	NA
52	2	20	M	Question	27	1	NA	NA	3098.0	0
53	2	20	M	Filler	117	6	While	1	279.0	NA
53	2	20	M	Filler	117	6	Mike	2	82.0	NA
53	2	20	M	Filler	117	6	coughed	3	51.0	NA
53	2	20	M	Filler	117	6	Janet	4	16.0	NA
53	2	20	M	Filler	117	6	went	5	68.0	NA
53	2	20	M	Filler	117	6	out	6	17.0	NA
53	2	20	M	Filler	117	6	to	7	49.0	NA
53	2	20	M	Filler	117	6	get	8	35.0	NA
53	2	20	M	Filler	117	6	some	9	31.0	NA
53	2	20	M	Filler	117	6	cough	10	19.0	NA
53	2	20	M	Filler	117	6	medicine.	11	16.0	NA
53	2	20	M	Question	117	6	NA	NA	978.0	1
54	2	20	M	Filler	69	4	The	1	278.0	NA
54	2	20	M	Filler	69	4	tiny	2	66.0	NA
54	2	20	M	Filler	69	4	child	3	33.0	NA
54	2	20	M	Filler	69	4	rolled	4	151.0	NA
54	2	20	M	Filler	69	4	the	5	84.0	NA
54	2	20	M	Filler	69	4	piece	6	82.0	NA
54	2	20	M	Filler	69	4	of	7	18.0	NA
54	2	20	M	Filler	69	4	the	8	33.0	NA
54	2	20	M	Filler	69	4	toy	9	34.0	NA
54	2	20	M	Filler	69	4	into	10	32.0	NA
54	2	20	M	Filler	69	4	the	11	18.0	NA
54	2	20	M	Filler	69	4	next	12	34.0	NA
54	2	20	M	Filler	69	4	room	13	34.0	NA
54	2	20	M	Filler	69	4	after	14	14.0	NA
54	2	20	M	Filler	69	4	it	15	69.0	NA
54	2	20	M	Filler	69	4	broke	16	165.0	NA
54	2	20	M	Filler	69	4	off.	17	201.0	NA
54	2	20	M	Question	69	4	NA	NA	727.0	1
55	2	20	M	Filler	115	6	As	1	262.0	NA
55	2	20	M	Filler	115	6	Elaine	2	49.0	NA
55	2	20	M	Filler	115	6	and	3	51.0	NA
55	2	20	M	Filler	115	6	Robert	4	32.0	NA
55	2	20	M	Filler	115	6	fought	5	34.0	NA
55	2	20	M	Filler	115	6	the	6	17.0	NA
55	2	20	M	Filler	115	6	mosquitoes	7	32.0	NA
55	2	20	M	Filler	115	6	whined	8	18.0	NA
55	2	20	M	Filler	115	6	annoyingly.	9	49.0	NA
55	2	20	M	Question	115	6	NA	NA	1499.0	1
56	2	20	M	Filler	90	5	The	1	278.0	NA
56	2	20	M	Filler	90	5	artist	2	50.0	NA
56	2	20	M	Filler	90	5	was	3	49.0	NA
56	2	20	M	Filler	90	5	not	4	134.0	NA
56	2	20	M	Filler	90	5	satisfied	5	17.0	NA
56	2	20	M	Filler	90	5	with	6	15.0	NA
56	2	20	M	Filler	90	5	his	7	35.0	NA
56	2	20	M	Filler	90	5	painting	8	50.0	NA
56	2	20	M	Filler	90	5	because	9	17.0	NA
56	2	20	M	Filler	90	5	the	10	34.0	NA
56	2	20	M	Filler	90	5	shading	11	32.0	NA
56	2	20	M	Filler	90	5	was	12	117.0	NA
56	2	20	M	Filler	90	5	off.	13	34.0	NA
56	2	20	M	Question	90	5	NA	NA	795.0	0
57	2	20	M	swets	3	1	The	1	262.0	NA
57	2	20	M	swets	3	1	partner	2	50.0	NA
57	2	20	M	swets	3	1	of	3	66.0	NA
57	2	20	M	swets	3	1	the	4	33.0	NA
57	2	20	M	swets	3	1	salesman	5	18.0	NA
57	2	20	M	swets	3	1	who	6	33.0	NA
57	2	20	M	swets	3	1	amused	7	33.0	NA
57	2	20	M	swets	3	1	himself	8	49.0	NA
57	2	20	M	swets	3	1	quite	9	35.0	NA
57	2	20	M	swets	3	1	a	10	32.0	NA
57	2	20	M	swets	3	1	bit	11	16.0	NA
57	2	20	M	swets	3	1	was	12	52.0	NA
57	2	20	M	swets	3	1	writing	13	31.0	NA
57	2	20	M	swets	3	1	a	14	35.0	NA
57	2	20	M	swets	3	1	letter	15	17.0	NA
57	2	20	M	swets	3	1	to	16	49.0	NA
57	2	20	M	swets	3	1	the	17	18.0	NA
57	2	20	M	swets	3	1	editor.	18	50.0	NA
57	2	20	M	Question	3	1	NA	NA	1193.0	1
58	2	20	M	Filler	130	7	While	1	294.0	NA
58	2	20	M	Filler	130	7	Margo	2	66.0	NA
58	2	20	M	Filler	130	7	bathed	3	52.0	NA
58	2	20	M	Filler	130	7	the	4	17.0	NA
58	2	20	M	Filler	130	7	dog	5	49.0	NA
58	2	20	M	Filler	130	7	barked	6	16.0	NA
58	2	20	M	Filler	130	7	in	7	18.0	NA
58	2	20	M	Filler	130	7	the	8	49.0	NA
58	2	20	M	Filler	130	7	yard.	9	33.0	NA
58	2	20	M	Question	130	7	NA	NA	4798.0	1
59	2	20	M	Filler	44	4	The	1	378.0	NA
59	2	20	M	Filler	44	4	solicitor	2	150.0	NA
59	2	20	M	Filler	44	4	wearing	3	50.0	NA
59	2	20	M	Filler	44	4	the	4	34.0	NA
59	2	20	M	Filler	44	4	new	5	50.0	NA
59	2	20	M	Filler	44	4	tuxedo	6	50.0	NA
59	2	20	M	Filler	44	4	bothered	7	16.0	NA
59	2	20	M	Filler	44	4	a	8	51.0	NA
59	2	20	M	Filler	44	4	man	9	34.0	NA
59	2	20	M	Filler	44	4	from	10	33.0	NA
59	2	20	M	Filler	44	4	New	11	16.0	NA
59	2	20	M	Filler	44	4	York.	12	49.0	NA
59	2	20	M	Question	44	4	NA	NA	979.0	0
60	2	20	M	swets	20	3	The	1	228.0	NA
60	2	20	M	swets	20	3	sister	2	82.0	NA
60	2	20	M	swets	20	3	of	3	35.0	NA
60	2	20	M	swets	20	3	the	4	17.0	NA
60	2	20	M	swets	20	3	count	5	48.0	NA
60	2	20	M	swets	20	3	who	6	150.0	NA
60	2	20	M	swets	20	3	crippled	7	19.0	NA
60	2	20	M	swets	20	3	herself	8	49.0	NA
60	2	20	M	swets	20	3	by	9	49.0	NA
60	2	20	M	swets	20	3	falling	10	17.0	NA
60	2	20	M	swets	20	3	off	11	34.0	NA
60	2	20	M	swets	20	3	a	12	66.0	NA
60	2	20	M	swets	20	3	horse	13	134.0	NA
60	2	20	M	swets	20	3	took	14	83.0	NA
60	2	20	M	swets	20	3	a	15	50.0	NA
60	2	20	M	swets	20	3	long	16	16.0	NA
60	2	20	M	swets	20	3	time	17	35.0	NA
60	2	20	M	swets	20	3	to	18	32.0	NA
60	2	20	M	swets	20	3	get	19	35.0	NA
60	2	20	M	swets	20	3	over	20	66.0	NA
60	2	20	M	swets	20	3	it.	21	17.0	NA
60	2	20	M	Question	20	3	NA	NA	960.0	1
61	2	20	M	Filler	125	6	The	1	412.0	NA
61	2	20	M	Filler	125	6	bosses	2	115.0	NA
61	2	20	M	Filler	125	6	and	3	50.0	NA
61	2	20	M	Filler	125	6	secretaries	4	17.0	NA
61	2	20	M	Filler	125	6	took	5	49.0	NA
61	2	20	M	Filler	125	6	a	6	18.0	NA
61	2	20	M	Filler	125	6	long	7	66.0	NA
61	2	20	M	Filler	125	6	lunch	8	50.0	NA
61	2	20	M	Filler	125	6	together	9	50.0	NA
61	2	20	M	Filler	125	6	every	10	34.0	NA
61	2	20	M	Filler	125	6	Friday.	11	33.0	NA
61	2	20	M	Question	125	6	NA	NA	865.0	1
62	2	20	M	swets	2	3	The	1	278.0	NA
62	2	20	M	swets	2	3	sister	2	66.0	NA
62	2	20	M	swets	2	3	of	3	34.0	NA
62	2	20	M	swets	2	3	the	4	16.0	NA
62	2	20	M	swets	2	3	fireman	5	51.0	NA
62	2	20	M	swets	2	3	who	6	16.0	NA
62	2	20	M	swets	2	3	criticized	7	49.0	NA
62	2	20	M	swets	2	3	herself	8	18.0	NA
62	2	20	M	swets	2	3	far	9	49.0	NA
62	2	20	M	swets	2	3	too	10	35.0	NA
62	2	20	M	swets	2	3	often	11	17.0	NA
62	2	20	M	swets	2	3	was	12	49.0	NA
62	2	20	M	swets	2	3	painting	13	50.0	NA
62	2	20	M	swets	2	3	the	14	33.0	NA
62	2	20	M	swets	2	3	bedroom.	15	16.0	NA
62	2	20	M	Question	2	3	NA	NA	1929.0	0
63	2	20	M	Filler	52	4	The	1	262.0	NA
63	2	20	M	Filler	52	4	students	2	82.0	NA
63	2	20	M	Filler	52	4	were	3	17.0	NA
63	2	20	M	Filler	52	4	bored	4	17.0	NA
63	2	20	M	Filler	52	4	by	5	51.0	NA
63	2	20	M	Filler	52	4	the	6	17.0	NA
63	2	20	M	Filler	52	4	teacher.	7	33.0	NA
63	2	20	M	Question	52	4	NA	NA	897.0	0
64	2	20	M	swets	8	3	The	1	278.0	NA
64	2	20	M	swets	8	3	brother	2	34.0	NA
64	2	20	M	swets	8	3	of	3	50.0	NA
64	2	20	M	swets	8	3	the	4	65.0	NA
64	2	20	M	swets	8	3	seamstress	5	50.0	NA
64	2	20	M	swets	8	3	who	6	18.0	NA
64	2	20	M	swets	8	3	entertained	7	49.0	NA
64	2	20	M	swets	8	3	himself	8	51.0	NA
64	2	20	M	swets	8	3	most	9	50.0	NA
64	2	20	M	swets	8	3	evenings	10	34.0	NA
64	2	20	M	swets	8	3	was	11	150.0	NA
64	2	20	M	swets	8	3	reading	12	66.0	NA
64	2	20	M	swets	8	3	a	13	117.0	NA
64	2	20	M	swets	8	3	book.	14	101.0	NA
64	2	20	M	Question	8	3	NA	NA	1763.0	0
65	2	20	M	Filler	86	5	The	1	295.0	NA
65	2	20	M	Filler	86	5	family's	2	83.0	NA
65	2	20	M	Filler	86	5	television	3	34.0	NA
65	2	20	M	Filler	86	5	stopped	4	33.0	NA
65	2	20	M	Filler	86	5	working	5	51.0	NA
65	2	20	M	Filler	86	5	two	6	33.0	NA
65	2	20	M	Filler	86	5	days	7	66.0	NA
65	2	20	M	Filler	86	5	after	8	50.0	NA
65	2	20	M	Filler	86	5	the	9	50.0	NA
65	2	20	M	Filler	86	5	warranty	10	32.0	NA
65	2	20	M	Filler	86	5	expired.	11	35.0	NA
65	2	20	M	Question	86	5	NA	NA	994.0	1
66	2	20	M	Filler	72	4	The	1	277.0	NA
66	2	20	M	Filler	72	4	secretaries	2	67.0	NA
66	2	20	M	Filler	72	4	couldn't	3	51.0	NA
66	2	20	M	Filler	72	4	break	4	33.0	NA
66	2	20	M	Filler	72	4	away	5	33.0	NA
66	2	20	M	Filler	72	4	from	6	66.0	NA
66	2	20	M	Filler	72	4	their	7	51.0	NA
66	2	20	M	Filler	72	4	habit	8	182.0	NA
66	2	20	M	Filler	72	4	of	9	50.0	NA
66	2	20	M	Filler	72	4	coffee	10	67.0	NA
66	2	20	M	Filler	72	4	and	11	34.0	NA
66	2	20	M	Filler	72	4	cigarettes	12	49.0	NA
66	2	20	M	Filler	72	4	during	13	50.0	NA
66	2	20	M	Filler	72	4	their	14	34.0	NA
66	2	20	M	Filler	72	4	breaks.	15	134.0	NA
66	2	20	M	Question	72	4	NA	NA	1061.0	1
67	2	20	M	swets	6	1	The	1	278.0	NA
67	2	20	M	swets	6	1	brother	2	48.0	NA
67	2	20	M	swets	6	1	of	3	51.0	NA
67	2	20	M	swets	6	1	the	4	49.0	NA
67	2	20	M	swets	6	1	mayor	5	69.0	NA
67	2	20	M	swets	6	1	who	6	32.0	NA
67	2	20	M	swets	6	1	complimented	7	50.0	NA
67	2	20	M	swets	6	1	himself	8	67.0	NA
67	2	20	M	swets	6	1	constantly	9	84.0	NA
67	2	20	M	swets	6	1	was	10	50.0	NA
67	2	20	M	swets	6	1	bothered	11	66.0	NA
67	2	20	M	swets	6	1	by	12	50.0	NA
67	2	20	M	swets	6	1	the	13	50.0	NA
67	2	20	M	swets	6	1	reporter.	14	84.0	NA
67	2	20	M	Question	6	1	NA	NA	1295.0	1
68	2	20	M	Filler	95	5	The	1	262.0	NA
68	2	20	M	Filler	95	5	receptionist	2	66.0	NA
68	2	20	M	Filler	95	5	of	3	417.0	NA
68	2	20	M	Filler	95	5	the	4	34.0	NA
68	2	20	M	Filler	95	5	company	5	166.0	NA
68	2	20	M	Filler	95	5	went	6	34.0	NA
68	2	20	M	Filler	95	5	home	7	50.0	NA
68	2	20	M	Filler	95	5	sick	8	16.0	NA
68	2	20	M	Filler	95	5	before	9	34.0	NA
68	2	20	M	Filler	95	5	moving	10	199.0	NA
68	2	20	M	Filler	95	5	across	11	84.0	NA
68	2	20	M	Filler	95	5	town.	12	66.0	NA
68	2	20	M	Question	95	5	NA	NA	862.0	0
69	2	20	M	Filler	61	4	The	1	310.0	NA
69	2	20	M	Filler	61	4	lemon	2	67.0	NA
69	2	20	M	Filler	61	4	squirted	3	18.0	NA
69	2	20	M	Filler	61	4	into	4	32.0	NA
69	2	20	M	Filler	61	4	the	5	18.0	NA
69	2	20	M	Filler	61	4	debutante's	6	32.0	NA
69	2	20	M	Filler	61	4	eye	7	35.0	NA
69	2	20	M	Filler	61	4	as	8	33.0	NA
69	2	20	M	Filler	61	4	she	9	33.0	NA
69	2	20	M	Filler	61	4	tried	10	82.0	NA
69	2	20	M	Filler	61	4	to	11	134.0	NA
69	2	20	M	Filler	61	4	impress	12	33.0	NA
69	2	20	M	Filler	61	4	her	13	34.0	NA
69	2	20	M	Filler	61	4	mother's	14	50.0	NA
69	2	20	M	Filler	61	4	society	15	49.0	NA
69	2	20	M	Filler	61	4	friends.	16	34.0	NA
69	2	20	M	Question	61	4	NA	NA	728.0	1
70	2	20	M	Filler	131	7	While	1	311.0	NA
70	2	20	M	Filler	131	7	Jamie	2	66.0	NA
70	2	20	M	Filler	131	7	dried	3	35.0	NA
70	2	20	M	Filler	131	7	off	4	16.0	NA
70	2	20	M	Filler	131	7	the	5	33.0	NA
70	2	20	M	Filler	131	7	table	6	34.0	NA
70	2	20	M	Filler	131	7	his	7	48.0	NA
70	2	20	M	Filler	131	7	sunglasses	8	18.0	NA
70	2	20	M	Filler	131	7	disappeared.	9	50.0	NA
70	2	20	M	Question	131	7	NA	NA	1330.0	1
71	2	20	M	Filler	114	6	While	1	261.0	NA
71	2	20	M	Filler	114	6	the	2	84.0	NA
71	2	20	M	Filler	114	6	winners	3	32.0	NA
71	2	20	M	Filler	114	6	were	4	19.0	NA
71	2	20	M	Filler	114	6	kissing	5	33.0	NA
71	2	20	M	Filler	114	6	the	6	183.0	NA
71	2	20	M	Filler	114	6	crowd	7	151.0	NA
71	2	20	M	Filler	114	6	cheered	8	32.0	NA
71	2	20	M	Filler	114	6	wildly.	9	50.0	NA
71	2	20	M	Question	114	6	NA	NA	730.0	1
72	2	20	M	Filler	113	6	While	1	311.0	NA
72	2	20	M	Filler	113	6	Noah	2	17.0	NA
72	2	20	M	Filler	113	6	was	3	34.0	NA
72	2	20	M	Filler	113	6	waking	4	33.0	NA
72	2	20	M	Filler	113	6	up	5	34.0	NA
72	2	20	M	Filler	113	6	the	6	32.0	NA
72	2	20	M	Filler	113	6	man	7	35.0	NA
72	2	20	M	Filler	113	6	the	8	33.0	NA
72	2	20	M	Filler	113	6	neighbor	9	33.0	NA
72	2	20	M	Filler	113	6	coughed	10	33.0	NA
72	2	20	M	Filler	113	6	loudly.	11	18.0	NA
72	2	20	M	Question	113	6	NA	NA	1028.0	1
73	2	20	M	Filler	70	4	The	1	229.0	NA
73	2	20	M	Filler	70	4	warden	2	84.0	NA
73	2	20	M	Filler	70	4	was	3	32.0	NA
73	2	20	M	Filler	70	4	dissatisfied	4	35.0	NA
73	2	20	M	Filler	70	4	with	5	48.0	NA
73	2	20	M	Filler	70	4	the	6	19.0	NA
73	2	20	M	Filler	70	4	decision	7	49.0	NA
73	2	20	M	Filler	70	4	of	8	51.0	NA
73	2	20	M	Filler	70	4	the	9	48.0	NA
73	2	20	M	Filler	70	4	parole	10	68.0	NA
73	2	20	M	Filler	70	4	committee	11	17.0	NA
73	2	20	M	Filler	70	4	to	12	99.0	NA
73	2	20	M	Filler	70	4	pardon	13	118.0	NA
73	2	20	M	Filler	70	4	the	14	132.0	NA
73	2	20	M	Filler	70	4	prisoner.	15	83.0	NA
73	2	20	M	Question	70	4	NA	NA	861.0	1
74	2	20	M	Filler	58	4	The	1	347.0	NA
74	2	20	M	Filler	58	4	white	2	233.0	NA
74	2	20	M	Filler	58	4	dog	3	33.0	NA
74	2	20	M	Filler	58	4	bit	4	33.0	NA
74	2	20	M	Filler	58	4	the	5	68.0	NA
74	2	20	M	Filler	58	4	ankle	6	49.0	NA
74	2	20	M	Filler	58	4	of	7	34.0	NA
74	2	20	M	Filler	58	4	the	8	50.0	NA
74	2	20	M	Filler	58	4	child.	9	32.0	NA
74	2	20	M	Question	58	4	NA	NA	697.0	1
75	2	20	M	Filler	73	5	My	1	294.0	NA
75	2	20	M	Filler	73	5	cousins	2	51.0	NA
75	2	20	M	Filler	73	5	admired	3	66.0	NA
75	2	20	M	Filler	73	5	the	4	35.0	NA
75	2	20	M	Filler	73	5	singer	5	32.0	NA
75	2	20	M	Filler	73	5	although	6	33.0	NA
75	2	20	M	Filler	73	5	she	7	35.0	NA
75	2	20	M	Filler	73	5	never	8	32.0	NA
75	2	20	M	Filler	73	5	became	9	51.0	NA
75	2	20	M	Filler	73	5	popular.	10	34.0	NA
75	2	20	M	Question	73	5	NA	NA	1395.0	1
76	2	20	M	Filler	54	4	The	1	228.0	NA
76	2	20	M	Filler	54	4	video	2	83.0	NA
76	2	20	M	Filler	54	4	screen	3	51.0	NA
76	2	20	M	Filler	54	4	of	4	32.0	NA
76	2	20	M	Filler	54	4	the	5	18.0	NA
76	2	20	M	Filler	54	4	monitor	6	34.0	NA
76	2	20	M	Filler	54	4	made	7	48.0	NA
76	2	20	M	Filler	54	4	strange	8	50.0	NA
76	2	20	M	Filler	54	4	noises	9	19.0	NA
76	2	20	M	Filler	54	4	and	10	48.0	NA
76	2	20	M	Filler	54	4	started	11	16.0	NA
76	2	20	M	Filler	54	4	emitting	12	35.0	NA
76	2	20	M	Filler	54	4	strange	13	35.0	NA
76	2	20	M	Filler	54	4	flashes.	14	33.0	NA
76	2	20	M	Question	54	4	NA	NA	894.0	1
77	2	20	M	Filler	92	5	The	1	262.0	NA
77	2	20	M	Filler	92	5	personal	2	50.0	NA
77	2	20	M	Filler	92	5	trainer	3	50.0	NA
77	2	20	M	Filler	92	5	was	4	16.0	NA
77	2	20	M	Filler	92	5	popular	5	66.0	NA
77	2	20	M	Filler	92	5	among	6	18.0	NA
77	2	20	M	Filler	92	5	athletes	7	32.0	NA
77	2	20	M	Filler	92	5	after	8	35.0	NA
77	2	20	M	Filler	92	5	he	9	66.0	NA
77	2	20	M	Filler	92	5	helped	10	33.0	NA
77	2	20	M	Filler	92	5	the	11	151.0	NA
77	2	20	M	Filler	92	5	bodybuilder	12	166.0	NA
77	2	20	M	Filler	92	5	win	13	151.0	NA
77	2	20	M	Filler	92	5	the	14	83.0	NA
77	2	20	M	Filler	92	5	competition.	15	34.0	NA
77	2	20	M	Question	92	5	NA	NA	928.0	0
78	2	20	M	Filler	40	4	The	1	277.0	NA
78	2	20	M	Filler	40	4	boy's	2	84.0	NA
78	2	20	M	Filler	40	4	mother	3	33.0	NA
78	2	20	M	Filler	40	4	was	4	18.0	NA
78	2	20	M	Filler	40	4	very	5	50.0	NA
78	2	20	M	Filler	40	4	happy	6	16.0	NA
78	2	20	M	Filler	40	4	to	7	18.0	NA
78	2	20	M	Filler	40	4	see	8	49.0	NA
78	2	20	M	Filler	40	4	good	9	17.0	NA
78	2	20	M	Filler	40	4	grades	10	50.0	NA
78	2	20	M	Filler	40	4	on	11	33.0	NA
78	2	20	M	Filler	40	4	his	12	49.0	NA
78	2	20	M	Filler	40	4	report	13	17.0	NA
78	2	20	M	Filler	40	4	card.	14	35.0	NA
78	2	20	M	Question	40	4	NA	NA	894.0	1
79	2	20	M	swets	31	2	The	1	295.0	NA
79	2	20	M	swets	31	2	aunt	2	83.0	NA
79	2	20	M	swets	31	2	of	3	33.0	NA
79	2	20	M	swets	31	2	the	4	151.0	NA
79	2	20	M	swets	31	2	milkman	5	116.0	NA
79	2	20	M	swets	31	2	who	6	51.0	NA
79	2	20	M	swets	31	2	had	7	16.0	NA
79	2	20	M	swets	31	2	to	8	33.0	NA
79	2	20	M	swets	31	2	support	9	34.0	NA
79	2	20	M	swets	31	2	himself	10	49.0	NA
79	2	20	M	swets	31	2	with	11	34.0	NA
79	2	20	M	swets	31	2	a	12	32.0	NA
79	2	20	M	swets	31	2	low	13	18.0	NA
79	2	20	M	swets	31	2	income	14	33.0	NA
79	2	20	M	swets	31	2	liked	15	52.0	NA
79	2	20	M	swets	31	2	to	16	16.0	NA
79	2	20	M	swets	31	2	fish.	17	33.0	NA
79	2	20	M	Question	31	2	NA	NA	1028.0	1
80	2	20	M	Filler	135	7	While	1	294.0	NA
80	2	20	M	Filler	135	7	Donna	2	65.0	NA
80	2	20	M	Filler	135	7	and	3	34.0	NA
80	2	20	M	Filler	135	7	Scott	4	34.0	NA
80	2	20	M	Filler	135	7	met	5	49.0	NA
80	2	20	M	Filler	135	7	their	6	18.0	NA
80	2	20	M	Filler	135	7	agent	7	34.0	NA
80	2	20	M	Filler	135	7	some	8	48.0	NA
80	2	20	M	Filler	135	7	friends	9	18.0	NA
80	2	20	M	Filler	135	7	called	10	33.0	NA
80	2	20	M	Filler	135	7	and	11	51.0	NA
80	2	20	M	Filler	135	7	left	12	16.0	NA
80	2	20	M	Filler	135	7	a	13	51.0	NA
80	2	20	M	Filler	135	7	message.	14	34.0	NA
80	2	20	M	Question	135	7	NA	NA	2678.0	1
81	2	20	M	swets	21	1	The	1	461.0	NA
81	2	20	M	swets	21	1	son	2	17.0	NA
81	2	20	M	swets	21	1	of	3	85.0	NA
81	2	20	M	swets	21	1	the	4	49.0	NA
81	2	20	M	swets	21	1	janitor	5	49.0	NA
81	2	20	M	swets	21	1	who	6	35.0	NA
81	2	20	M	swets	21	1	educated	7	16.0	NA
81	2	20	M	swets	21	1	himself	8	50.0	NA
81	2	20	M	swets	21	1	at	9	51.0	NA
81	2	20	M	swets	21	1	night	10	49.0	NA
81	2	20	M	swets	21	1	loved	11	33.0	NA
81	2	20	M	swets	21	1	going	12	50.0	NA
81	2	20	M	swets	21	1	to	13	17.0	NA
81	2	20	M	swets	21	1	the	14	50.0	NA
81	2	20	M	swets	21	1	theatre.	15	50.0	NA
81	2	20	M	Question	21	1	NA	NA	827.0	1
82	2	20	M	Filler	53	4	The	1	278.0	NA
82	2	20	M	Filler	53	4	clay	2	83.0	NA
82	2	20	M	Filler	53	4	pot	3	66.0	NA
82	2	20	M	Filler	53	4	was	4	151.0	NA
82	2	20	M	Filler	53	4	full	5	16.0	NA
82	2	20	M	Filler	53	4	of	6	17.0	NA
82	2	20	M	Filler	53	4	gold	7	50.0	NA
82	2	20	M	Filler	53	4	coins	8	33.0	NA
82	2	20	M	Filler	53	4	and	9	50.0	NA
82	2	20	M	Filler	53	4	the	10	51.0	NA
82	2	20	M	Filler	53	4	thief	11	31.0	NA
82	2	20	M	Filler	53	4	knew	12	134.0	NA
82	2	20	M	Filler	53	4	he	13	168.0	NA
82	2	20	M	Filler	53	4	had	14	99.0	NA
82	2	20	M	Filler	53	4	finally	15	67.0	NA
82	2	20	M	Filler	53	4	hit	16	200.0	NA
82	2	20	M	Filler	53	4	the	17	17.0	NA
82	2	20	M	Filler	53	4	jackpot.	18	216.0	NA
82	2	20	M	Question	53	4	NA	NA	660.0	1
83	2	20	M	swets	9	1	The	1	329.0	NA
83	2	20	M	swets	9	1	sister	2	49.0	NA
83	2	20	M	swets	9	1	of	3	34.0	NA
83	2	20	M	swets	9	1	the	4	32.0	NA
83	2	20	M	swets	9	1	schoolgirl	5	17.0	NA
83	2	20	M	swets	9	1	who	6	34.0	NA
83	2	20	M	swets	9	1	burned	7	32.0	NA
83	2	20	M	swets	9	1	herself	8	17.0	NA
83	2	20	M	swets	9	1	the	9	35.0	NA
83	2	20	M	swets	9	1	other	10	32.0	NA
83	2	20	M	swets	9	1	day	11	33.0	NA
83	2	20	M	swets	9	1	was	12	18.0	NA
83	2	20	M	swets	9	1	usually	13	33.0	NA
83	2	20	M	swets	9	1	very	14	17.0	NA
83	2	20	M	swets	9	1	careful.	15	33.0	NA
83	2	20	M	Question	9	1	NA	NA	927.0	1
84	2	20	M	Filler	80	5	The	1	280.0	NA
84	2	20	M	Filler	80	5	stepfather	2	65.0	NA
84	2	20	M	Filler	80	5	of	3	51.0	NA
84	2	20	M	Filler	80	5	the	4	17.0	NA
84	2	20	M	Filler	80	5	nun	5	31.0	NA
84	2	20	M	Filler	80	5	with	6	35.0	NA
84	2	20	M	Filler	80	5	a	7	32.0	NA
84	2	20	M	Filler	80	5	long	8	34.0	NA
84	2	20	M	Filler	80	5	white	9	35.0	NA
84	2	20	M	Filler	80	5	beard	10	48.0	NA
84	2	20	M	Filler	80	5	became	11	33.0	NA
84	2	20	M	Filler	80	5	very	12	52.0	NA
84	2	20	M	Filler	80	5	ill.	13	16.0	NA
84	2	20	M	Question	80	5	NA	NA	763.0	0
85	2	20	M	Filler	144	7	The	1	329.0	NA
85	2	20	M	Filler	144	7	apple	2	66.0	NA
85	2	20	M	Filler	144	7	and	3	33.0	NA
85	2	20	M	Filler	144	7	potato	4	67.0	NA
85	2	20	M	Filler	144	7	went	5	18.0	NA
85	2	20	M	Filler	144	7	rotten	6	33.0	NA
85	2	20	M	Filler	144	7	after	7	33.0	NA
85	2	20	M	Filler	144	7	a	8	33.0	NA
85	2	20	M	Filler	144	7	week.	9	51.0	NA
85	2	20	M	Question	144	7	NA	NA	1263.0	1
86	2	20	M	swets	15	1	The	1	279.0	NA
86	2	20	M	swets	15	1	sister	2	67.0	NA
86	2	20	M	swets	15	1	of	3	67.0	NA
86	2	20	M	swets	15	1	the	4	17.0	NA
86	2	20	M	swets	15	1	beautician	5	33.0	NA
86	2	20	M	swets	15	1	who	6	32.0	NA
86	2	20	M	swets	15	1	cut	7	34.0	NA
86	2	20	M	swets	15	1	herself	8	17.0	NA
86	2	20	M	swets	15	1	on	9	50.0	NA
86	2	20	M	swets	15	1	the	10	49.0	NA
86	2	20	M	swets	15	1	broken	11	35.0	NA
86	2	20	M	swets	15	1	glass	12	34.0	NA
86	2	20	M	swets	15	1	phoned	13	33.0	NA
86	2	20	M	swets	15	1	for	14	33.0	NA
86	2	20	M	swets	15	1	a	15	34.0	NA
86	2	20	M	swets	15	1	doctor.	16	49.0	NA
86	2	20	M	Question	15	1	NA	NA	1759.0	1
87	2	20	M	Filler	56	4	The	1	279.0	NA
87	2	20	M	Filler	56	4	actor	2	83.0	NA
87	2	20	M	Filler	56	4	said	3	67.0	NA
87	2	20	M	Filler	56	4	the	4	33.0	NA
87	2	20	M	Filler	56	4	audiences	5	34.0	NA
87	2	20	M	Filler	56	4	believed	6	83.0	NA
87	2	20	M	Filler	56	4	the	7	33.0	NA
87	2	20	M	Filler	56	4	nasty	8	83.0	NA
87	2	20	M	Filler	56	4	remarks	9	33.0	NA
87	2	20	M	Filler	56	4	made	10	17.0	NA
87	2	20	M	Filler	56	4	by	11	49.0	NA
87	2	20	M	Filler	56	4	the	12	18.0	NA
87	2	20	M	Filler	56	4	film	13	17.0	NA
87	2	20	M	Filler	56	4	critic.	14	66.0	NA
87	2	20	M	Question	56	4	NA	NA	995.0	0
88	2	20	M	Filler	139	7	Laurie	1	312.0	NA
88	2	20	M	Filler	139	7	asked	2	50.0	NA
88	2	20	M	Filler	139	7	which	3	49.0	NA
88	2	20	M	Filler	139	7	truck	4	17.0	NA
88	2	20	M	Filler	139	7	the	5	52.0	NA
88	2	20	M	Filler	139	7	dealership	6	16.0	NA
88	2	20	M	Filler	139	7	sold	7	50.0	NA
88	2	20	M	Filler	139	7	but	8	34.0	NA
88	2	20	M	Filler	139	7	didn't	9	16.0	NA
88	2	20	M	Filler	139	7	paint	10	33.0	NA
88	2	20	M	Filler	139	7	completely.	11	51.0	NA
88	2	20	M	Question	139	7	NA	NA	995.0	1
89	2	20	M	Filler	129	7	While	1	278.0	NA
89	2	20	M	Filler	129	7	Scott	2	50.0	NA
89	2	20	M	Filler	129	7	vacuumed	3	18.0	NA
89	2	20	M	Filler	129	7	the	4	33.0	NA
89	2	20	M	Filler	129	7	carpet	5	32.0	NA
89	2	20	M	Filler	129	7	the	6	35.0	NA
89	2	20	M	Filler	129	7	drapes	7	16.0	NA
89	2	20	M	Filler	129	7	flapped	8	34.0	NA
89	2	20	M	Filler	129	7	in	9	50.0	NA
89	2	20	M	Filler	129	7	the	10	33.0	NA
89	2	20	M	Filler	129	7	breeze.	11	67.0	NA
89	2	20	M	Question	129	7	NA	NA	1762.0	1
90	2	20	M	swets	18	1	The	1	279.0	NA
90	2	20	M	swets	18	1	nephew	2	49.0	NA
90	2	20	M	swets	18	1	of	3	52.0	NA
90	2	20	M	swets	18	1	the	4	34.0	NA
90	2	20	M	swets	18	1	fisherman	5	65.0	NA
90	2	20	M	swets	18	1	who	6	16.0	NA
90	2	20	M	swets	18	1	drowned	7	35.0	NA
90	2	20	M	swets	18	1	himself	8	34.0	NA
90	2	20	M	swets	18	1	in	9	48.0	NA
90	2	20	M	swets	18	1	the	10	35.0	NA
90	2	20	M	swets	18	1	ocean	11	66.0	NA
90	2	20	M	swets	18	1	didn't	12	33.0	NA
90	2	20	M	swets	18	1	know	13	33.0	NA
90	2	20	M	swets	18	1	about	14	182.0	NA
90	2	20	M	swets	18	1	the	15	34.0	NA
90	2	20	M	swets	18	1	tricky	16	34.0	NA
90	2	20	M	swets	18	1	current.	17	49.0	NA
90	2	20	M	Question	18	1	NA	NA	895.0	1
91	2	20	M	Filler	91	5	The	1	296.0	NA
91	2	20	M	Filler	91	5	workman	2	82.0	NA
91	2	20	M	Filler	91	5	dropped	3	51.0	NA
91	2	20	M	Filler	91	5	the	4	16.0	NA
91	2	20	M	Filler	91	5	assistant	5	34.0	NA
91	2	20	M	Filler	91	5	who	6	33.0	NA
91	2	20	M	Filler	91	5	complained	7	32.0	NA
91	2	20	M	Filler	91	5	bitterly	8	17.0	NA
91	2	20	M	Filler	91	5	onto	9	34.0	NA
91	2	20	M	Filler	91	5	a	10	34.0	NA
91	2	20	M	Filler	91	5	lower	11	34.0	NA
91	2	20	M	Filler	91	5	floor.	12	32.0	NA
91	2	20	M	Question	91	5	NA	NA	961.0	1
92	2	20	M	Filler	47	4	The	1	312.0	NA
92	2	20	M	Filler	47	4	boys	2	66.0	NA
92	2	20	M	Filler	47	4	all	3	33.0	NA
92	2	20	M	Filler	47	4	admired	4	18.0	NA
92	2	20	M	Filler	47	4	the	5	51.0	NA
92	2	20	M	Filler	47	4	singer	6	134.0	NA
92	2	20	M	Filler	47	4	of	7	31.0	NA
92	2	20	M	Filler	47	4	the	8	35.0	NA
92	2	20	M	Filler	47	4	song	9	16.0	NA
92	2	20	M	Filler	47	4	with	10	49.0	NA
92	2	20	M	Filler	47	4	the	11	17.0	NA
92	2	20	M	Filler	47	4	long	12	18.0	NA
92	2	20	M	Filler	47	4	eyelashes.	13	198.0	NA
92	2	20	M	Question	47	4	NA	NA	728.0	1
93	2	20	M	Filler	102	5	The	1	279.0	NA
93	2	20	M	Filler	102	5	old	2	66.0	NA
93	2	20	M	Filler	102	5	man	3	17.0	NA
93	2	20	M	Filler	102	5	appeared	4	17.0	NA
93	2	20	M	Filler	102	5	to	5	50.0	NA
93	2	20	M	Filler	102	5	be	6	33.0	NA
93	2	20	M	Filler	102	5	upset	7	50.0	NA
93	2	20	M	Filler	102	5	by	8	16.0	NA
93	2	20	M	Filler	102	5	the	9	52.0	NA
93	2	20	M	Filler	102	5	teenager's	10	49.0	NA
93	2	20	M	Filler	102	5	ignorant	11	17.0	NA
93	2	20	M	Filler	102	5	remark.	12	65.0	NA
93	2	20	M	Question	102	5	NA	NA	964.0	1
94	2	20	M	Filler	75	5	The	1	311.0	NA
94	2	20	M	Filler	75	5	musician	2	84.0	NA
94	2	20	M	Filler	75	5	shocked	3	50.0	NA
94	2	20	M	Filler	75	5	the	4	17.0	NA
94	2	20	M	Filler	75	5	audience	5	65.0	NA
94	2	20	M	Filler	75	5	because	6	17.0	NA
94	2	20	M	Filler	75	5	they	7	34.0	NA
94	2	20	M	Filler	75	5	did	8	17.0	NA
94	2	20	M	Filler	75	5	not	9	33.0	NA
94	2	20	M	Filler	75	5	realize	10	33.0	NA
94	2	20	M	Filler	75	5	what	11	50.0	NA
94	2	20	M	Filler	75	5	these	12	17.0	NA
94	2	20	M	Filler	75	5	shows	13	18.0	NA
94	2	20	M	Filler	75	5	were	14	66.0	NA
94	2	20	M	Filler	75	5	like.	15	17.0	NA
94	2	20	M	Question	75	5	NA	NA	892.0	0
95	2	20	M	swets	35	3	The	1	260.0	NA
95	2	20	M	swets	35	3	landlady	2	84.0	NA
95	2	20	M	swets	35	3	of	3	65.0	NA
95	2	20	M	swets	35	3	the	4	18.0	NA
95	2	20	M	swets	35	3	businessman	5	66.0	NA
95	2	20	M	swets	35	3	who	6	135.0	NA
95	2	20	M	swets	35	3	had	7	49.0	NA
95	2	20	M	swets	35	3	locked	8	34.0	NA
95	2	20	M	swets	35	3	herself	9	49.0	NA
95	2	20	M	swets	35	3	in	10	50.0	NA
95	2	20	M	swets	35	3	the	11	50.0	NA
95	2	20	M	swets	35	3	office	12	34.0	NA
95	2	20	M	swets	35	3	received	13	50.0	NA
95	2	20	M	swets	35	3	a	14	51.0	NA
95	2	20	M	swets	35	3	phone	15	33.0	NA
95	2	20	M	swets	35	3	call.	16	33.0	NA
95	2	20	M	Question	35	3	NA	NA	2261.0	0
96	2	20	M	Filler	98	5	The	1	278.0	NA
96	2	20	M	Filler	98	5	husband	2	67.0	NA
96	2	20	M	Filler	98	5	of	3	67.0	NA
96	2	20	M	Filler	98	5	the	4	49.0	NA
96	2	20	M	Filler	98	5	bestselling	5	35.0	NA
96	2	20	M	Filler	98	5	novelist	6	167.0	NA
96	2	20	M	Filler	98	5	was	7	34.0	NA
96	2	20	M	Filler	98	5	into	8	65.0	NA
96	2	20	M	Filler	98	5	collecting	9	134.0	NA
96	2	20	M	Filler	98	5	antiques.	10	49.0	NA
96	2	20	M	Question	98	5	NA	NA	929.0	1
97	2	20	M	Filler	93	5	The	1	228.0	NA
97	2	20	M	Filler	93	5	new	2	65.0	NA
97	2	20	M	Filler	93	5	book	3	50.0	NA
97	2	20	M	Filler	93	5	replaced	4	17.0	NA
97	2	20	M	Filler	93	5	the	5	51.0	NA
97	2	20	M	Filler	93	5	work	6	17.0	NA
97	2	20	M	Filler	93	5	of	7	31.0	NA
97	2	20	M	Filler	93	5	the	8	36.0	NA
97	2	20	M	Filler	93	5	leaders	9	34.0	NA
97	2	20	M	Filler	93	5	in	10	16.0	NA
97	2	20	M	Filler	93	5	the	11	184.0	NA
97	2	20	M	Filler	93	5	field	12	32.0	NA
97	2	20	M	Filler	93	5	of	13	17.0	NA
97	2	20	M	Filler	93	5	physical	14	33.0	NA
97	2	20	M	Filler	93	5	chemistry.	15	51.0	NA
97	2	20	M	Question	93	5	NA	NA	860.0	1
98	2	20	M	Filler	46	4	The	1	295.0	NA
98	2	20	M	Filler	46	4	preacher	2	84.0	NA
98	2	20	M	Filler	46	4	of	3	50.0	NA
98	2	20	M	Filler	46	4	the	4	16.0	NA
98	2	20	M	Filler	46	4	congregation	5	66.0	NA
98	2	20	M	Filler	46	4	had	6	18.0	NA
98	2	20	M	Filler	46	4	given	7	49.0	NA
98	2	20	M	Filler	46	4	a	8	68.0	NA
98	2	20	M	Filler	46	4	sermon	9	50.0	NA
98	2	20	M	Filler	46	4	at	10	33.0	NA
98	2	20	M	Filler	46	4	a	11	50.0	NA
98	2	20	M	Filler	46	4	local	12	66.0	NA
98	2	20	M	Filler	46	4	school.	13	51.0	NA
98	2	20	M	Question	46	4	NA	NA	862.0	1
99	2	20	M	Filler	105	5	The	1	295.0	NA
99	2	20	M	Filler	105	5	actors	2	134.0	NA
99	2	20	M	Filler	105	5	rehearsed	3	66.0	NA
99	2	20	M	Filler	105	5	the	4	66.0	NA
99	2	20	M	Filler	105	5	play	5	51.0	NA
99	2	20	M	Filler	105	5	so	6	100.0	NA
99	2	20	M	Filler	105	5	much	7	133.0	NA
99	2	20	M	Filler	105	5	that	8	67.0	NA
99	2	20	M	Filler	105	5	they	9	49.0	NA
99	2	20	M	Filler	105	5	became	10	36.0	NA
99	2	20	M	Filler	105	5	bored	11	50.0	NA
99	2	20	M	Filler	105	5	with	12	66.0	NA
99	2	20	M	Filler	105	5	it.	13	49.0	NA
99	2	20	M	Question	105	5	NA	NA	893.0	1
100	2	20	M	Filler	133	7	While	1	278.0	NA
100	2	20	M	Filler	133	7	the	2	50.0	NA
100	2	20	M	Filler	133	7	lawyers	3	118.0	NA
100	2	20	M	Filler	133	7	fought	4	182.0	NA
100	2	20	M	Filler	133	7	the	5	34.0	NA
100	2	20	M	Filler	133	7	ruling	6	84.0	NA
100	2	20	M	Filler	133	7	the	7	32.0	NA
100	2	20	M	Filler	133	7	judge	8	67.0	NA
100	2	20	M	Filler	133	7	announced	9	66.0	NA
100	2	20	M	Filler	133	7	the	10	51.0	NA
100	2	20	M	Filler	133	7	decision.	11	117.0	NA
100	2	20	M	Question	133	7	NA	NA	1563.0	0
101	2	20	M	Filler	103	5	The	1	377.0	NA
101	2	20	M	Filler	103	5	desperate	2	99.0	NA
101	2	20	M	Filler	103	5	thief	3	34.0	NA
101	2	20	M	Filler	103	5	ran	4	48.0	NA
101	2	20	M	Filler	103	5	over	5	50.0	NA
101	2	20	M	Filler	103	5	a	6	18.0	NA
101	2	20	M	Filler	103	5	child	7	50.0	NA
101	2	20	M	Filler	103	5	in	8	48.0	NA
101	2	20	M	Filler	103	5	an	9	35.0	NA
101	2	20	M	Filler	103	5	attempt	10	50.0	NA
101	2	20	M	Filler	103	5	to	11	32.0	NA
101	2	20	M	Filler	103	5	dodge	12	34.0	NA
101	2	20	M	Filler	103	5	the	13	18.0	NA
101	2	20	M	Filler	103	5	cops.	14	50.0	NA
101	2	20	M	Question	103	5	NA	NA	695.0	1
102	2	20	M	Filler	96	5	The	1	295.0	NA
102	2	20	M	Filler	96	5	evil	2	66.0	NA
102	2	20	M	Filler	96	5	man	3	17.0	NA
102	2	20	M	Filler	96	5	watched	4	16.0	NA
102	2	20	M	Filler	96	5	the	5	67.0	NA
102	2	20	M	Filler	96	5	doorway	6	134.0	NA
102	2	20	M	Filler	96	5	of	7	34.0	NA
102	2	20	M	Filler	96	5	the	8	50.0	NA
102	2	20	M	Filler	96	5	bar	9	16.0	NA
102	2	20	M	Filler	96	5	every	10	34.0	NA
102	2	20	M	Filler	96	5	Friday	11	65.0	NA
102	2	20	M	Filler	96	5	night.	12	150.0	NA
102	2	20	M	Question	96	5	NA	NA	1112.0	1
103	2	20	M	swets	33	1	The	1	312.0	NA
103	2	20	M	swets	33	1	butler	2	98.0	NA
103	2	20	M	swets	33	1	of	3	18.0	NA
103	2	20	M	swets	33	1	the	4	32.0	NA
103	2	20	M	swets	33	1	actor	5	34.0	NA
103	2	20	M	swets	33	1	who	6	49.0	NA
103	2	20	M	swets	33	1	did	7	19.0	NA
103	2	20	M	swets	33	1	not	8	47.0	NA
103	2	20	M	swets	33	1	like	9	50.0	NA
103	2	20	M	swets	33	1	himself	10	35.0	NA
103	2	20	M	swets	33	1	very	11	17.0	NA
103	2	20	M	swets	33	1	much	12	49.0	NA
103	2	20	M	swets	33	1	caught	13	66.0	NA
103	2	20	M	swets	33	1	the	14	135.0	NA
103	2	20	M	swets	33	1	armed	15	49.0	NA
103	2	20	M	swets	33	1	robber.	16	51.0	NA
103	2	20	M	Question	33	1	NA	NA	2328.0	1
104	2	20	M	Filler	55	4	The	1	295.0	NA
104	2	20	M	Filler	55	4	people	2	67.0	NA
104	2	20	M	Filler	55	4	certainly	3	49.0	NA
104	2	20	M	Filler	55	4	admired	4	17.0	NA
104	2	20	M	Filler	55	4	the	5	68.0	NA
104	2	20	M	Filler	55	4	wife	6	32.0	NA
104	2	20	M	Filler	55	4	of	7	50.0	NA
104	2	20	M	Filler	55	4	the	8	34.0	NA
104	2	20	M	Filler	55	4	janitor	9	50.0	NA
104	2	20	M	Filler	55	4	because	10	33.0	NA
104	2	20	M	Filler	55	4	she	11	18.0	NA
104	2	20	M	Filler	55	4	educated	12	33.0	NA
104	2	20	M	Filler	55	4	herself	13	50.0	NA
104	2	20	M	Filler	55	4	at	14	17.0	NA
104	2	20	M	Filler	55	4	night.	15	50.0	NA
104	2	20	M	Question	55	4	NA	NA	1460.0	1
105	2	20	M	Filler	118	6	As	1	262.0	NA
105	2	20	M	Filler	118	6	the	2	82.0	NA
105	2	20	M	Filler	118	6	dog	3	68.0	NA
105	2	20	M	Filler	118	6	ran	4	33.0	NA
105	2	20	M	Filler	118	6	Wanda	5	17.0	NA
105	2	20	M	Filler	118	6	watched	6	34.0	NA
105	2	20	M	Filler	118	6	from	7	66.0	NA
105	2	20	M	Filler	118	6	the	8	18.0	NA
105	2	20	M	Filler	118	6	window.	9	182.0	NA
105	2	20	M	Question	118	6	NA	NA	830.0	1
106	2	20	M	swets	36	1	The	1	245.0	NA
106	2	20	M	swets	36	1	daughter	2	83.0	NA
106	2	20	M	swets	36	1	of	3	34.0	NA
106	2	20	M	swets	36	1	the	4	32.0	NA
106	2	20	M	swets	36	1	saleswoman	5	67.0	NA
106	2	20	M	swets	36	1	who	6	17.0	NA
106	2	20	M	swets	36	1	talked	7	34.0	NA
106	2	20	M	swets	36	1	to	8	49.0	NA
106	2	20	M	swets	36	1	herself	9	50.0	NA
106	2	20	M	swets	36	1	all	10	49.0	NA
106	2	20	M	swets	36	1	the	11	34.0	NA
106	2	20	M	swets	36	1	time	12	35.0	NA
106	2	20	M	swets	36	1	walked	13	49.0	NA
106	2	20	M	swets	36	1	into	14	35.0	NA
106	2	20	M	swets	36	1	the	15	33.0	NA
106	2	20	M	swets	36	1	room.	16	65.0	NA
106	2	20	M	Question	36	1	NA	NA	1561.0	1
107	2	20	M	Filler	142	7	The	1	329.0	NA
107	2	20	M	Filler	142	7	cats	2	66.0	NA
107	2	20	M	Filler	142	7	and	3	67.0	NA
107	2	20	M	Filler	142	7	dogs	4	67.0	NA
107	2	20	M	Filler	142	7	glared	5	33.0	NA
107	2	20	M	Filler	142	7	at	6	68.0	NA
107	2	20	M	Filler	142	7	each	7	66.0	NA
107	2	20	M	Filler	142	7	other	8	51.0	NA
107	2	20	M	Filler	142	7	warily.	9	16.0	NA
107	2	20	M	Question	142	7	NA	NA	963.0	1
108	2	20	M	Filler	99	5	The	1	295.0	NA
108	2	20	M	Filler	99	5	daring	2	82.0	NA
108	2	20	M	Filler	99	5	photographer	3	33.0	NA
108	2	20	M	Filler	99	5	captured	4	183.0	NA
108	2	20	M	Filler	99	5	the	5	150.0	NA
108	2	20	M	Filler	99	5	image	6	33.0	NA
108	2	20	M	Filler	99	5	of	7	34.0	NA
108	2	20	M	Filler	99	5	the	8	49.0	NA
108	2	20	M	Filler	99	5	destruction	9	50.0	NA
108	2	20	M	Filler	99	5	as	10	33.0	NA
108	2	20	M	Filler	99	5	it	11	17.0	NA
108	2	20	M	Filler	99	5	devastated	12	18.0	NA
108	2	20	M	Filler	99	5	the	13	83.0	NA
108	2	20	M	Filler	99	5	village.	14	34.0	NA
108	2	20	M	Question	99	5	NA	NA	860.0	1
109	2	20	M	Filler	37	4	The	1	261.0	NA
109	2	20	M	Filler	37	4	party	2	100.0	NA
109	2	20	M	Filler	37	4	attracted	3	67.0	NA
109	2	20	M	Filler	37	4	the	4	134.0	NA
109	2	20	M	Filler	37	4	fraternity	5	32.0	NA
109	2	20	M	Filler	37	4	members	6	66.0	NA
109	2	20	M	Filler	37	4	whose	7	33.0	NA
109	2	20	M	Filler	37	4	house	8	34.0	NA
109	2	20	M	Filler	37	4	had	9	50.0	NA
109	2	20	M	Filler	37	4	been	10	67.0	NA
109	2	20	M	Filler	37	4	seized	11	150.0	NA
109	2	20	M	Filler	37	4	by	12	51.0	NA
109	2	20	M	Filler	37	4	drug	13	149.0	NA
109	2	20	M	Filler	37	4	agents.	14	100.0	NA
109	2	20	M	Question	37	4	NA	NA	996.0	1
110	2	20	M	swets	24	1	The	1	279.0	NA
110	2	20	M	swets	24	1	assistant	2	83.0	NA
110	2	20	M	swets	24	1	of	3	82.0	NA
110	2	20	M	swets	24	1	the	4	35.0	NA
110	2	20	M	swets	24	1	chaplain	5	66.0	NA
110	2	20	M	swets	24	1	who	6	17.0	NA
110	2	20	M	swets	24	1	drew	7	49.0	NA
110	2	20	M	swets	24	1	attention	8	34.0	NA
110	2	20	M	swets	24	1	to	9	51.0	NA
110	2	20	M	swets	24	1	himself	10	65.0	NA
110	2	20	M	swets	24	1	all	11	52.0	NA
110	2	20	M	swets	24	1	the	12	51.0	NA
110	2	20	M	swets	24	1	time	13	49.0	NA
110	2	20	M	swets	24	1	hated	14	50.0	NA
110	2	20	M	swets	24	1	small	15	50.0	NA
110	2	20	M	swets	24	1	children.	16	18.0	NA
110	2	20	M	Question	24	1	NA	NA	1092.0	1
111	2	20	M	Filler	39	4	The	1	345.0	NA
111	2	20	M	Filler	39	4	overweight	2	83.0	NA
111	2	20	M	Filler	39	4	aunt	3	34.0	NA
111	2	20	M	Filler	39	4	decided	4	49.0	NA
111	2	20	M	Filler	39	4	to	5	49.0	NA
111	2	20	M	Filler	39	4	make	6	35.0	NA
111	2	20	M	Filler	39	4	cookies	7	49.0	NA
111	2	20	M	Filler	39	4	and	8	50.0	NA
111	2	20	M	Filler	39	4	cupcakes	9	68.0	NA
111	2	20	M	Filler	39	4	for	10	16.0	NA
111	2	20	M	Filler	39	4	the	11	34.0	NA
111	2	20	M	Filler	39	4	dinner	12	82.0	NA
111	2	20	M	Filler	39	4	party.	13	34.0	NA
111	2	20	M	Question	39	4	NA	NA	962.0	1
112	2	20	M	swets	11	3	The	1	96.0	NA
112	2	20	M	swets	11	3	mother	2	167.0	NA
112	2	20	M	swets	11	3	of	3	131.0	NA
112	2	20	M	swets	11	3	the	4	18.0	NA
112	2	20	M	swets	11	3	surgeon	5	17.0	NA
112	2	20	M	swets	11	3	who	6	66.0	NA
112	2	20	M	swets	11	3	made	7	16.0	NA
112	2	20	M	swets	11	3	a	8	34.0	NA
112	2	20	M	swets	11	3	fool	9	33.0	NA
112	2	20	M	swets	11	3	of	10	34.0	NA
112	2	20	M	swets	11	3	herself	11	34.0	NA
112	2	20	M	swets	11	3	at	12	51.0	NA
112	2	20	M	swets	11	3	the	13	50.0	NA
112	2	20	M	swets	11	3	party	14	49.0	NA
112	2	20	M	swets	11	3	was	15	34.0	NA
112	2	20	M	swets	11	3	greatly	16	49.0	NA
112	2	20	M	swets	11	3	embarrassed.	17	66.0	NA
112	2	20	M	Question	11	3	NA	NA	994.0	0
113	2	20	M	Filler	45	4	The	1	295.0	NA
113	2	20	M	Filler	45	4	plumber	2	66.0	NA
113	2	20	M	Filler	45	4	repaired	3	51.0	NA
113	2	20	M	Filler	45	4	the	4	34.0	NA
113	2	20	M	Filler	45	4	sink	5	49.0	NA
113	2	20	M	Filler	45	4	of	6	32.0	NA
113	2	20	M	Filler	45	4	the	7	50.0	NA
113	2	20	M	Filler	45	4	tenant	8	50.0	NA
113	2	20	M	Filler	45	4	because	9	34.0	NA
113	2	20	M	Filler	45	4	he	10	51.0	NA
113	2	20	M	Filler	45	4	had	11	100.0	NA
113	2	20	M	Filler	45	4	just	12	35.0	NA
113	2	20	M	Filler	45	4	moved	13	82.0	NA
113	2	20	M	Filler	45	4	in.	14	50.0	NA
113	2	20	M	Question	45	4	NA	NA	1095.0	1
114	2	20	M	swets	25	2	The	1	295.0	NA
114	2	20	M	swets	25	2	grandfather	2	98.0	NA
114	2	20	M	swets	25	2	of	3	68.0	NA
114	2	20	M	swets	25	2	the	4	34.0	NA
114	2	20	M	swets	25	2	stewardess	5	50.0	NA
114	2	20	M	swets	25	2	who	6	50.0	NA
114	2	20	M	swets	25	2	treated	7	49.0	NA
114	2	20	M	swets	25	2	herself	8	50.0	NA
114	2	20	M	swets	25	2	to	9	52.0	NA
114	2	20	M	swets	25	2	an	10	50.0	NA
114	2	20	M	swets	25	2	ice-cream	11	82.0	NA
114	2	20	M	swets	25	2	cone	12	19.0	NA
114	2	20	M	swets	25	2	was	13	65.0	NA
114	2	20	M	swets	25	2	waiting	14	52.0	NA
114	2	20	M	swets	25	2	at	15	65.0	NA
114	2	20	M	swets	25	2	home.	16	51.0	NA
114	2	20	M	Question	25	2	NA	NA	1294.0	1
115	2	20	M	Filler	43	4	The	1	311.0	NA
115	2	20	M	Filler	43	4	movie	2	66.0	NA
115	2	20	M	Filler	43	4	director	3	52.0	NA
115	2	20	M	Filler	43	4	refused	4	33.0	NA
115	2	20	M	Filler	43	4	to	5	33.0	NA
115	2	20	M	Filler	43	4	work	6	51.0	NA
115	2	20	M	Filler	43	4	with	7	51.0	NA
115	2	20	M	Filler	43	4	the	8	15.0	NA
115	2	20	M	Filler	43	4	producer	9	68.0	NA
115	2	20	M	Filler	43	4	again	10	32.0	NA
115	2	20	M	Filler	43	4	after	11	50.0	NA
115	2	20	M	Filler	43	4	winning	12	34.0	NA
115	2	20	M	Filler	43	4	the	13	49.0	NA
115	2	20	M	Filler	43	4	grand	14	50.0	NA
115	2	20	M	Filler	43	4	prize.	15	35.0	NA
115	2	20	M	Question	43	4	NA	NA	827.0	1
116	2	20	M	Filler	57	4	The	1	294.0	NA
116	2	20	M	Filler	57	4	architect	2	84.0	NA
116	2	20	M	Filler	57	4	was	3	50.0	NA
116	2	20	M	Filler	57	4	embarrassed	4	34.0	NA
116	2	20	M	Filler	57	4	by	5	50.0	NA
116	2	20	M	Filler	57	4	the	6	50.0	NA
116	2	20	M	Filler	57	4	memo	7	52.0	NA
116	2	20	M	Filler	57	4	of	8	48.0	NA
116	2	20	M	Filler	57	4	the	9	18.0	NA
116	2	20	M	Filler	57	4	engineer	10	34.0	NA
116	2	20	M	Filler	57	4	because	11	65.0	NA
116	2	20	M	Filler	57	4	it	12	34.0	NA
116	2	20	M	Filler	57	4	said	13	49.0	NA
116	2	20	M	Filler	57	4	that	14	32.0	NA
116	2	20	M	Filler	57	4	his	15	51.0	NA
116	2	20	M	Filler	57	4	building	16	83.0	NA
116	2	20	M	Filler	57	4	would	17	18.0	NA
116	2	20	M	Filler	57	4	collapse.	18	133.0	NA
116	2	20	M	Question	57	4	NA	NA	728.0	1
117	2	20	M	Filler	50	4	The	1	379.0	NA
117	2	20	M	Filler	50	4	new	2	99.0	NA
117	2	20	M	Filler	50	4	language	3	50.0	NA
117	2	20	M	Filler	50	4	requirement	4	169.0	NA
117	2	20	M	Filler	50	4	made	5	48.0	NA
117	2	20	M	Filler	50	4	all	6	67.0	NA
117	2	20	M	Filler	50	4	the	7	100.0	NA
117	2	20	M	Filler	50	4	students	8	49.0	NA
117	2	20	M	Filler	50	4	say	9	50.0	NA
117	2	20	M	Filler	50	4	bad	10	102.0	NA
117	2	20	M	Filler	50	4	things	11	67.0	NA
117	2	20	M	Filler	50	4	about	12	99.0	NA
117	2	20	M	Filler	50	4	the	13	201.0	NA
117	2	20	M	Filler	50	4	dean	14	181.0	NA
117	2	20	M	Filler	50	4	of	15	102.0	NA
117	2	20	M	Filler	50	4	the	16	183.0	NA
117	2	20	M	Filler	50	4	college.	17	150.0	NA
117	2	20	M	Question	50	4	NA	NA	2928.0	1
118	2	20	M	Filler	49	4	The	1	312.0	NA
118	2	20	M	Filler	49	4	construction	2	67.0	NA
118	2	20	M	Filler	49	4	worker	3	33.0	NA
118	2	20	M	Filler	49	4	sued	4	16.0	NA
118	2	20	M	Filler	49	4	the	5	50.0	NA
118	2	20	M	Filler	49	4	son	6	50.0	NA
118	2	20	M	Filler	49	4	of	7	33.0	NA
118	2	20	M	Filler	49	4	that	8	33.0	NA
118	2	20	M	Filler	49	4	greedy	9	34.0	NA
118	2	20	M	Filler	49	4	banker.	10	50.0	NA
118	2	20	M	Question	49	4	NA	NA	762.0	0
119	2	20	M	Filler	94	5	After	1	312.0	NA
119	2	20	M	Filler	94	5	months	2	50.0	NA
119	2	20	M	Filler	94	5	of	3	50.0	NA
119	2	20	M	Filler	94	5	preparation	4	17.0	NA
119	2	20	M	Filler	94	5	the	5	17.0	NA
119	2	20	M	Filler	94	5	ballerina	6	66.0	NA
119	2	20	M	Filler	94	5	was	7	17.0	NA
119	2	20	M	Filler	94	5	getting	8	32.0	NA
119	2	20	M	Filler	94	5	ready	9	34.0	NA
119	2	20	M	Filler	94	5	for	10	17.0	NA
119	2	20	M	Filler	94	5	opening	11	67.0	NA
119	2	20	M	Filler	94	5	night.	12	16.0	NA
119	2	20	M	Question	94	5	NA	NA	1196.0	0
120	2	20	M	swets	14	3	The	1	245.0	NA
120	2	20	M	swets	14	3	father	2	83.0	NA
120	2	20	M	swets	14	3	of	3	50.0	NA
120	2	20	M	swets	14	3	the	4	34.0	NA
120	2	20	M	swets	14	3	nurse	5	49.0	NA
120	2	20	M	swets	14	3	who	6	151.0	NA
120	2	20	M	swets	14	3	injured	7	18.0	NA
120	2	20	M	swets	14	3	himself	8	48.0	NA
120	2	20	M	swets	14	3	last	9	34.0	NA
120	2	20	M	swets	14	3	summer	10	66.0	NA
120	2	20	M	swets	14	3	had	11	134.0	NA
120	2	20	M	swets	14	3	lived	12	50.0	NA
120	2	20	M	swets	14	3	in	13	51.0	NA
120	2	20	M	swets	14	3	Wales.	14	33.0	NA
120	2	20	M	Question	14	3	NA	NA	1628.0	0
121	2	20	M	Filler	59	4	The	1	378.0	NA
121	2	20	M	Filler	59	4	conductor	2	83.0	NA
121	2	20	M	Filler	59	4	of	3	50.0	NA
121	2	20	M	Filler	59	4	the	4	51.0	NA
121	2	20	M	Filler	59	4	orchestra	5	50.0	NA
121	2	20	M	Filler	59	4	with	6	50.0	NA
121	2	20	M	Filler	59	4	the	7	33.0	NA
121	2	20	M	Filler	59	4	bald	8	49.0	NA
121	2	20	M	Filler	59	4	head	9	49.0	NA
121	2	20	M	Filler	59	4	plays	10	18.0	NA
121	2	20	M	Filler	59	4	excellently.	11	67.0	NA
121	2	20	M	Question	59	4	NA	NA	929.0	1
122	2	20	M	swets	4	2	The	1	261.0	NA
122	2	20	M	swets	4	2	father	2	200.0	NA
122	2	20	M	swets	4	2	of	3	35.0	NA
122	2	20	M	swets	4	2	the	4	65.0	NA
122	2	20	M	swets	4	2	bride	5	83.0	NA
122	2	20	M	swets	4	2	who	6	35.0	NA
122	2	20	M	swets	4	2	embarrassed	7	66.0	NA
122	2	20	M	swets	4	2	herself	8	33.0	NA
122	2	20	M	swets	4	2	at	9	50.0	NA
122	2	20	M	swets	4	2	the	10	51.0	NA
122	2	20	M	swets	4	2	reception	11	384.0	NA
122	2	20	M	swets	4	2	was	12	98.0	NA
122	2	20	M	swets	4	2	complaining	13	100.0	NA
122	2	20	M	swets	4	2	to	14	101.0	NA
122	2	20	M	swets	4	2	the	15	149.0	NA
122	2	20	M	swets	4	2	priest.	16	84.0	NA
122	2	20	M	Question	4	2	NA	NA	1094.0	1
123	2	20	M	Filler	97	5	The	1	277.0	NA
123	2	20	M	Filler	97	5	tall	2	99.0	NA
123	2	20	M	Filler	97	5	man	3	51.0	NA
123	2	20	M	Filler	97	5	laughed	4	33.0	NA
123	2	20	M	Filler	97	5	at	5	33.0	NA
123	2	20	M	Filler	97	5	the	6	66.0	NA
123	2	20	M	Filler	97	5	clumsy	7	66.0	NA
123	2	20	M	Filler	97	5	child	8	34.0	NA
123	2	20	M	Filler	97	5	who	9	67.0	NA
123	2	20	M	Filler	97	5	spilled	10	50.0	NA
123	2	20	M	Filler	97	5	the	11	67.0	NA
123	2	20	M	Filler	97	5	milk	12	50.0	NA
123	2	20	M	Filler	97	5	on	13	99.0	NA
123	2	20	M	Filler	97	5	himself.	14	51.0	NA
123	2	20	M	Question	97	5	NA	NA	1697.0	1
124	2	20	M	Filler	68	4	The	1	345.0	NA
124	2	20	M	Filler	68	4	scientist	2	149.0	NA
124	2	20	M	Filler	68	4	published	3	166.0	NA
124	2	20	M	Filler	68	4	a	4	51.0	NA
124	2	20	M	Filler	68	4	paper	5	50.0	NA
124	2	20	M	Filler	68	4	in	6	83.0	NA
124	2	20	M	Filler	68	4	the	7	51.0	NA
124	2	20	M	Filler	68	4	journal	8	99.0	NA
124	2	20	M	Filler	68	4	of	9	50.0	NA
124	2	20	M	Filler	68	4	the	10	35.0	NA
124	2	20	M	Filler	68	4	foreign	11	48.0	NA
124	2	20	M	Filler	68	4	organization.	12	84.0	NA
124	2	20	M	Question	68	4	NA	NA	1396.0	0
125	2	20	M	Filler	60	4	The	1	310.0	NA
125	2	20	M	Filler	60	4	newlyweds	2	85.0	NA
125	2	20	M	Filler	60	4	were	3	49.0	NA
125	2	20	M	Filler	60	4	nervous	4	200.0	NA
125	2	20	M	Filler	60	4	about	5	34.0	NA
125	2	20	M	Filler	60	4	their	6	33.0	NA
125	2	20	M	Filler	60	4	new	7	68.0	NA
125	2	20	M	Filler	60	4	life	8	65.0	NA
125	2	20	M	Filler	60	4	together.	9	50.0	NA
125	2	20	M	Question	60	4	NA	NA	997.0	1
126	2	20	M	Filler	76	5	After	1	294.0	NA
126	2	20	M	Filler	76	5	fifty	2	84.0	NA
126	2	20	M	Filler	76	5	years	3	117.0	NA
126	2	20	M	Filler	76	5	of	4	168.0	NA
126	2	20	M	Filler	76	5	marriage	5	33.0	NA
126	2	20	M	Filler	76	5	the	6	50.0	NA
126	2	20	M	Filler	76	5	old	7	66.0	NA
126	2	20	M	Filler	76	5	couple	8	51.0	NA
126	2	20	M	Filler	76	5	still	9	81.0	NA
126	2	20	M	Filler	76	5	felt	10	68.0	NA
126	2	20	M	Filler	76	5	the	11	82.0	NA
126	2	20	M	Filler	76	5	same	12	52.0	NA
126	2	20	M	Filler	76	5	about	13	65.0	NA
126	2	20	M	Filler	76	5	each	14	18.0	NA
126	2	20	M	Filler	76	5	other	15	18.0	NA
126	2	20	M	Filler	76	5	as	16	50.0	NA
126	2	20	M	Filler	76	5	they	17	99.0	NA
126	2	20	M	Filler	76	5	had	18	100.0	NA
126	2	20	M	Filler	76	5	on	19	33.0	NA
126	2	20	M	Filler	76	5	their	20	67.0	NA
126	2	20	M	Filler	76	5	wedding	21	32.0	NA
126	2	20	M	Filler	76	5	day.	22	67.0	NA
126	2	20	M	Question	76	5	NA	NA	892.0	1
127	2	20	M	swets	34	2	The	1	261.0	NA
127	2	20	M	swets	34	2	waiter	2	83.0	NA
127	2	20	M	swets	34	2	of	3	34.0	NA
127	2	20	M	swets	34	2	the	4	68.0	NA
127	2	20	M	swets	34	2	woman	5	32.0	NA
127	2	20	M	swets	34	2	who	6	34.0	NA
127	2	20	M	swets	34	2	considered	7	49.0	NA
127	2	20	M	swets	34	2	herself	8	34.0	NA
127	2	20	M	swets	34	2	a	9	52.0	NA
127	2	20	M	swets	34	2	natural	10	32.0	NA
127	2	20	M	swets	34	2	beauty	11	66.0	NA
127	2	20	M	swets	34	2	spilled	12	167.0	NA
127	2	20	M	swets	34	2	the	13	34.0	NA
127	2	20	M	swets	34	2	drinks.	14	66.0	NA
127	2	20	M	Question	34	2	NA	NA	1261.0	1
128	2	20	M	Filler	62	4	After	1	261.0	NA
128	2	20	M	Filler	62	4	much	2	84.0	NA
128	2	20	M	Filler	62	4	deliberation	3	32.0	NA
128	2	20	M	Filler	62	4	the	4	33.0	NA
128	2	20	M	Filler	62	4	jury	5	50.0	NA
128	2	20	M	Filler	62	4	found	6	51.0	NA
128	2	20	M	Filler	62	4	the	7	17.0	NA
128	2	20	M	Filler	62	4	defendant	8	51.0	NA
128	2	20	M	Filler	62	4	not	9	48.0	NA
128	2	20	M	Filler	62	4	guilty.	10	100.0	NA
128	2	20	M	Question	62	4	NA	NA	2097.0	1
129	2	20	M	Filler	64	4	Because	1	262.0	NA
129	2	20	M	Filler	64	4	a	2	116.0	NA
129	2	20	M	Filler	64	4	fire	3	185.0	NA
129	2	20	M	Filler	64	4	alarm	4	66.0	NA
129	2	20	M	Filler	64	4	interrupted	5	51.0	NA
129	2	20	M	Filler	64	4	the	6	50.0	NA
129	2	20	M	Filler	64	4	exam	7	32.0	NA
129	2	20	M	Filler	64	4	the	8	18.0	NA
129	2	20	M	Filler	64	4	scores	9	33.0	NA
129	2	20	M	Filler	64	4	were	10	50.0	NA
129	2	20	M	Filler	64	4	disqualified.	11	34.0	NA
129	2	20	M	Question	64	4	NA	NA	862.0	1
130	2	20	M	Filler	128	7	While	1	312.0	NA
130	2	20	M	Filler	128	7	the	2	32.0	NA
130	2	20	M	Filler	128	7	man	3	50.0	NA
130	2	20	M	Filler	128	7	was	4	33.0	NA
130	2	20	M	Filler	128	7	walking	5	35.0	NA
130	2	20	M	Filler	128	7	the	6	32.0	NA
130	2	20	M	Filler	128	7	poodle	7	49.0	NA
130	2	20	M	Filler	128	7	barked	8	20.0	NA
130	2	20	M	Filler	128	7	loudly.	9	33.0	NA
130	2	20	M	Question	128	7	NA	NA	1029.0	0
131	2	20	M	swets	32	3	The	1	262.0	NA
131	2	20	M	swets	32	3	nephew	2	51.0	NA
131	2	20	M	swets	32	3	of	3	66.0	NA
131	2	20	M	swets	32	3	the	4	151.0	NA
131	2	20	M	swets	32	3	duchess	5	31.0	NA
131	2	20	M	swets	32	3	who	6	35.0	NA
131	2	20	M	swets	32	3	looked	7	49.0	NA
131	2	20	M	swets	32	3	at	8	50.0	NA
131	2	20	M	swets	32	3	himself	9	66.0	NA
131	2	20	M	swets	32	3	in	10	35.0	NA
131	2	20	M	swets	32	3	the	11	65.0	NA
131	2	20	M	swets	32	3	mirror	12	101.0	NA
131	2	20	M	swets	32	3	wore	13	18.0	NA
131	2	20	M	swets	32	3	a	14	100.0	NA
131	2	20	M	swets	32	3	blue	15	100.0	NA
131	2	20	M	swets	32	3	shirt.	16	316.0	NA
131	2	20	M	Question	32	3	NA	NA	1195.0	0
132	2	20	M	Filler	126	6	The	1	279.0	NA
132	2	20	M	Filler	126	6	boxes	2	84.0	NA
132	2	20	M	Filler	126	6	and	3	48.0	NA
132	2	20	M	Filler	126	6	hangers	4	17.0	NA
132	2	20	M	Filler	126	6	had	5	51.0	NA
132	2	20	M	Filler	126	6	been	6	65.0	NA
132	2	20	M	Filler	126	6	stuffed	7	33.0	NA
132	2	20	M	Filler	126	6	in	8	18.0	NA
132	2	20	M	Filler	126	6	the	9	52.0	NA
132	2	20	M	Filler	126	6	closet.	10	48.0	NA
132	2	20	M	Question	126	6	NA	NA	2463.0	0
133	2	20	M	Filler	88	5	The	1	329.0	NA
133	2	20	M	Filler	88	5	woman's	2	67.0	NA
133	2	20	M	Filler	88	5	posture	3	51.0	NA
133	2	20	M	Filler	88	5	began	4	65.0	NA
133	2	20	M	Filler	88	5	to	5	18.0	NA
133	2	20	M	Filler	88	5	go	6	33.0	NA
133	2	20	M	Filler	88	5	bad	7	67.0	NA
133	2	20	M	Filler	88	5	because	8	66.0	NA
133	2	20	M	Filler	88	5	of	9	18.0	NA
133	2	20	M	Filler	88	5	her	10	66.0	NA
133	2	20	M	Filler	88	5	constant	11	67.0	NA
133	2	20	M	Filler	88	5	slumping.	12	65.0	NA
133	2	20	M	Question	88	5	NA	NA	995.0	1
134	2	20	M	Filler	104	5	Despite	1	279.0	NA
134	2	20	M	Filler	104	5	the	2	99.0	NA
134	2	20	M	Filler	104	5	relative	3	32.0	NA
134	2	20	M	Filler	104	5	lack	4	17.0	NA
134	2	20	M	Filler	104	5	of	5	35.0	NA
134	2	20	M	Filler	104	5	rain	6	33.0	NA
134	2	20	M	Filler	104	5	the	7	17.0	NA
134	2	20	M	Filler	104	5	farmer	8	51.0	NA
134	2	20	M	Filler	104	5	harvested	9	51.0	NA
134	2	20	M	Filler	104	5	much	10	64.0	NA
134	2	20	M	Filler	104	5	wheat.	11	18.0	NA
134	2	20	M	Question	104	5	NA	NA	1063.0	1
135	2	20	M	Filler	140	7	The	1	245.0	NA
135	2	20	M	Filler	140	7	investigators	2	117.0	NA
135	2	20	M	Filler	140	7	asked	3	51.0	NA
135	2	20	M	Filler	140	7	which	4	48.0	NA
135	2	20	M	Filler	140	7	mansion	5	300.0	NA
135	2	20	M	Filler	140	7	the	6	520.0	NA
135	2	20	M	Filler	140	7	owner	7	249.0	NA
135	2	20	M	Filler	140	7	sold	8	183.0	NA
135	2	20	M	Filler	140	7	and	9	266.0	NA
135	2	20	M	Filler	140	7	didn't	10	284.0	NA
135	2	20	M	Filler	140	7	repair	11	283.0	NA
135	2	20	M	Filler	140	7	ten	12	216.0	NA
135	2	20	M	Filler	140	7	years	13	284.0	NA
135	2	20	M	Filler	140	7	ago.	14	216.0	NA
135	2	20	M	Question	140	7	NA	NA	1662.0	1
136	2	20	M	Filler	107	5	The	1	329.0	NA
136	2	20	M	Filler	107	5	citizens	2	99.0	NA
136	2	20	M	Filler	107	5	were	3	85.0	NA
136	2	20	M	Filler	107	5	dissatisfied	4	81.0	NA
136	2	20	M	Filler	107	5	with	5	36.0	NA
136	2	20	M	Filler	107	5	the	6	49.0	NA
136	2	20	M	Filler	107	5	mayor	7	82.0	NA
136	2	20	M	Filler	107	5	of	8	50.0	NA
136	2	20	M	Filler	107	5	town	9	67.0	NA
136	2	20	M	Filler	107	5	because	10	68.0	NA
136	2	20	M	Filler	107	5	he	11	66.0	NA
136	2	20	M	Filler	107	5	had	12	84.0	NA
136	2	20	M	Filler	107	5	little	13	82.0	NA
136	2	20	M	Filler	107	5	experience.	14	67.0	NA
136	2	20	M	Question	107	5	NA	NA	927.0	1
137	2	20	M	Filler	74	5	My	1	363.0	NA
137	2	20	M	Filler	74	5	former	2	48.0	NA
137	2	20	M	Filler	74	5	girlfriend	3	67.0	NA
137	2	20	M	Filler	74	5	criticized	4	68.0	NA
137	2	20	M	Filler	74	5	the	5	148.0	NA
137	2	20	M	Filler	74	5	author's	6	51.0	NA
137	2	20	M	Filler	74	5	agent	7	33.0	NA
137	2	20	M	Filler	74	5	because	8	34.0	NA
137	2	20	M	Filler	74	5	he	9	67.0	NA
137	2	20	M	Filler	74	5	had	10	100.0	NA
137	2	20	M	Filler	74	5	failed	11	216.0	NA
137	2	20	M	Filler	74	5	to	12	100.0	NA
137	2	20	M	Filler	74	5	meet	13	133.0	NA
137	2	20	M	Filler	74	5	a	14	151.0	NA
137	2	20	M	Filler	74	5	deadline.	15	83.0	NA
137	2	20	M	Question	74	5	NA	NA	1395.0	1
138	2	20	M	Filler	137	7	When	1	379.0	NA
138	2	20	M	Filler	137	7	Leslie	2	183.0	NA
138	2	20	M	Filler	137	7	was	3	34.0	NA
138	2	20	M	Filler	137	7	sneezing	4	65.0	NA
138	2	20	M	Filler	137	7	her	5	17.0	NA
138	2	20	M	Filler	137	7	friends	6	50.0	NA
138	2	20	M	Filler	137	7	laughed	7	34.0	NA
138	2	20	M	Filler	137	7	at	8	50.0	NA
138	2	20	M	Filler	137	7	her.	9	49.0	NA
138	2	20	M	Question	137	7	NA	NA	998.0	1
139	2	20	M	swets	28	2	The	1	296.0	NA
139	2	20	M	swets	28	2	nephew	2	66.0	NA
139	2	20	M	swets	28	2	of	3	49.0	NA
139	2	20	M	swets	28	2	the	4	134.0	NA
139	2	20	M	swets	28	2	baroness	5	35.0	NA
139	2	20	M	swets	28	2	who	6	16.0	NA
139	2	20	M	swets	28	2	admired	7	33.0	NA
139	2	20	M	swets	28	2	herself	8	66.0	NA
139	2	20	M	swets	28	2	an	9	17.0	NA
139	2	20	M	swets	28	2	inordinate	10	17.0	NA
139	2	20	M	swets	28	2	amount	11	66.0	NA
139	2	20	M	swets	28	2	enjoyed	12	33.0	NA
139	2	20	M	swets	28	2	all	13	18.0	NA
139	2	20	M	swets	28	2	the	14	33.0	NA
139	2	20	M	swets	28	2	attention.	15	33.0	NA
139	2	20	M	Question	28	2	NA	NA	996.0	1
140	2	20	M	Filler	106	5	On	1	294.0	NA
140	2	20	M	Filler	106	5	the	2	49.0	NA
140	2	20	M	Filler	106	5	last	3	35.0	NA
140	2	20	M	Filler	106	5	night	4	165.0	NA
140	2	20	M	Filler	106	5	of	5	151.0	NA
140	2	20	M	Filler	106	5	summer	6	50.0	NA
140	2	20	M	Filler	106	5	camp	7	50.0	NA
140	2	20	M	Filler	106	5	the	8	50.0	NA
140	2	20	M	Filler	106	5	counselors	9	34.0	NA
140	2	20	M	Filler	106	5	let	10	17.0	NA
140	2	20	M	Filler	106	5	the	11	33.0	NA
140	2	20	M	Filler	106	5	children	12	49.0	NA
140	2	20	M	Filler	106	5	stay	13	50.0	NA
140	2	20	M	Filler	106	5	up	14	18.0	NA
140	2	20	M	Filler	106	5	until	15	65.0	NA
140	2	20	M	Filler	106	5	midnight.	16	117.0	NA
140	2	20	M	Question	106	5	NA	NA	1263.0	1
141	2	20	M	Filler	127	7	While	1	396.0	NA
141	2	20	M	Filler	127	7	Linda	2	99.0	NA
141	2	20	M	Filler	127	7	wrote	3	85.0	NA
141	2	20	M	Filler	127	7	the	4	65.0	NA
141	2	20	M	Filler	127	7	letter	5	34.0	NA
141	2	20	M	Filler	127	7	arrived	6	150.0	NA
141	2	20	M	Filler	127	7	from	7	35.0	NA
141	2	20	M	Filler	127	7	Chicago.	8	65.0	NA
141	2	20	M	Question	127	7	NA	NA	1997.0	1
142	2	20	M	swets	17	3	The	1	294.0	NA
142	2	20	M	swets	17	3	bank	2	51.0	NA
142	2	20	M	swets	17	3	manager	3	66.0	NA
142	2	20	M	swets	17	3	of	4	49.0	NA
142	2	20	M	swets	17	3	the	5	51.0	NA
142	2	20	M	swets	17	3	heiress	6	49.0	NA
142	2	20	M	swets	17	3	who	7	67.0	NA
142	2	20	M	swets	17	3	bankrupted	8	135.0	NA
142	2	20	M	swets	17	3	himself	9	82.0	NA
142	2	20	M	swets	17	3	last	10	133.0	NA
142	2	20	M	swets	17	3	year	11	85.0	NA
142	2	20	M	swets	17	3	still	12	66.0	NA
142	2	20	M	swets	17	3	made	13	65.0	NA
142	2	20	M	swets	17	3	risky	14	68.0	NA
142	2	20	M	swets	17	3	investments.	15	199.0	NA
142	2	20	M	Question	17	3	NA	NA	1129.0	1
143	2	20	M	Filler	111	6	While	1	312.0	NA
143	2	20	M	Filler	111	6	the	2	50.0	NA
143	2	20	M	Filler	111	6	clown	3	50.0	NA
143	2	20	M	Filler	111	6	juggled	4	33.0	NA
143	2	20	M	Filler	111	6	the	5	33.0	NA
143	2	20	M	Filler	111	6	balls	6	34.0	NA
143	2	20	M	Filler	111	6	fell	7	34.0	NA
143	2	20	M	Filler	111	6	to	8	16.0	NA
143	2	20	M	Filler	111	6	the	9	50.0	NA
143	2	20	M	Filler	111	6	ground.	10	33.0	NA
143	2	20	M	Question	111	6	NA	NA	2373.0	0
