trial	subj	age	gender	stimulustype	item	condition	word	position	rt	correct
0	5	21	F	Filler	86	5	The	1	1762.0	NA
0	5	21	F	Filler	86	5	family's	2	333.0	NA
0	5	21	F	Filler	86	5	television	3	351.0	NA
0	5	21	F	Filler	86	5	stopped	4	448.0	NA
0	5	21	F	Filler	86	5	working	5	435.0	NA
0	5	21	F	Filler	86	5	two	6	383.0	NA
0	5	21	F	Filler	86	5	days	7	349.0	NA
0	5	21	F	Filler	86	5	after	8	386.0	NA
0	5	21	F	Filler	86	5	the	9	349.0	NA
0	5	21	F	Filler	86	5	warranty	10	366.0	NA
0	5	21	F	Filler	86	5	expired.	11	385.0	NA
0	5	21	F	Question	86	5	NA	NA	2067.0	1
1	5	21	F	swets	4	2	The	1	429.0	NA
1	5	21	F	swets	4	2	father	2	333.0	NA
1	5	21	F	swets	4	2	of	3	367.0	NA
1	5	21	F	swets	4	2	the	4	433.0	NA
1	5	21	F	swets	4	2	bride	5	399.0	NA
1	5	21	F	swets	4	2	who	6	384.0	NA
1	5	21	F	swets	4	2	embarrassed	7	351.0	NA
1	5	21	F	swets	4	2	herself	8	416.0	NA
1	5	21	F	swets	4	2	at	9	501.0	NA
1	5	21	F	swets	4	2	the	10	383.0	NA
1	5	21	F	swets	4	2	reception	11	368.0	NA
1	5	21	F	swets	4	2	was	12	366.0	NA
1	5	21	F	swets	4	2	complaining	13	384.0	NA
1	5	21	F	swets	4	2	to	14	367.0	NA
1	5	21	F	swets	4	2	the	15	383.0	NA
1	5	21	F	swets	4	2	priest.	16	433.0	NA
1	5	21	F	Question	4	2	NA	NA	1399.0	0
2	5	21	F	Filler	41	4	While	1	479.0	NA
2	5	21	F	Filler	41	4	the	2	317.0	NA
2	5	21	F	Filler	41	4	babysitter	3	4368.0	NA
2	5	21	F	Filler	41	4	watched	4	399.0	NA
2	5	21	F	Filler	41	4	soap	5	334.0	NA
2	5	21	F	Filler	41	4	operas	6	367.0	NA
2	5	21	F	Filler	41	4	the	7	533.0	NA
2	5	21	F	Filler	41	4	child	8	416.0	NA
2	5	21	F	Filler	41	4	poured	9	418.0	NA
2	5	21	F	Filler	41	4	honey	10	499.0	NA
2	5	21	F	Filler	41	4	all	11	468.0	NA
2	5	21	F	Filler	41	4	over	12	367.0	NA
2	5	21	F	Filler	41	4	the	13	382.0	NA
2	5	21	F	Filler	41	4	floor.	14	383.0	NA
2	5	21	F	Question	41	4	NA	NA	1335.0	1
3	5	21	F	Filler	44	4	The	1	412.0	NA
3	5	21	F	Filler	44	4	solicitor	2	333.0	NA
3	5	21	F	Filler	44	4	wearing	3	333.0	NA
3	5	21	F	Filler	44	4	the	4	383.0	NA
3	5	21	F	Filler	44	4	new	5	368.0	NA
3	5	21	F	Filler	44	4	tuxedo	6	350.0	NA
3	5	21	F	Filler	44	4	bothered	7	533.0	NA
3	5	21	F	Filler	44	4	a	8	1234.0	NA
3	5	21	F	Filler	44	4	man	9	484.0	NA
3	5	21	F	Filler	44	4	from	10	417.0	NA
3	5	21	F	Filler	44	4	New	11	350.0	NA
3	5	21	F	Filler	44	4	York.	12	450.0	NA
3	5	21	F	Question	44	4	NA	NA	5667.0	1
4	5	21	F	Filler	108	5	The	1	213.0	NA
4	5	21	F	Filler	108	5	museum	2	433.0	NA
4	5	21	F	Filler	108	5	wing	3	468.0	NA
4	5	21	F	Filler	108	5	which	4	482.0	NA
4	5	21	F	Filler	108	5	housed	5	417.0	NA
4	5	21	F	Filler	108	5	all	6	350.0	NA
4	5	21	F	Filler	108	5	the	7	383.0	NA
4	5	21	F	Filler	108	5	Picasso	8	733.0	NA
4	5	21	F	Filler	108	5	paintings	9	417.0	NA
4	5	21	F	Filler	108	5	was	10	401.0	NA
4	5	21	F	Filler	108	5	very	11	400.0	NA
4	5	21	F	Filler	108	5	crowded.	12	385.0	NA
4	5	21	F	Question	108	5	NA	NA	2917.0	1
5	5	21	F	Filler	129	7	While	1	378.0	NA
5	5	21	F	Filler	129	7	Scott	2	267.0	NA
5	5	21	F	Filler	129	7	vacuumed	3	318.0	NA
5	5	21	F	Filler	129	7	the	4	317.0	NA
5	5	21	F	Filler	129	7	carpet	5	415.0	NA
5	5	21	F	Filler	129	7	the	6	333.0	NA
5	5	21	F	Filler	129	7	drapes	7	335.0	NA
5	5	21	F	Filler	129	7	flapped	8	333.0	NA
5	5	21	F	Filler	129	7	in	9	383.0	NA
5	5	21	F	Filler	129	7	the	10	316.0	NA
5	5	21	F	Filler	129	7	breeze.	11	369.0	NA
5	5	21	F	Question	129	7	NA	NA	3533.0	0
6	5	21	F	Filler	79	5	Although	1	527.0	NA
6	5	21	F	Filler	79	5	the	2	283.0	NA
6	5	21	F	Filler	79	5	mechanic	3	284.0	NA
6	5	21	F	Filler	79	5	said	4	351.0	NA
6	5	21	F	Filler	79	5	the	5	249.0	NA
6	5	21	F	Filler	79	5	job	6	283.0	NA
6	5	21	F	Filler	79	5	would	7	284.0	NA
6	5	21	F	Filler	79	5	take	8	367.0	NA
6	5	21	F	Filler	79	5	four	9	317.0	NA
6	5	21	F	Filler	79	5	days	10	433.0	NA
6	5	21	F	Filler	79	5	the	11	367.0	NA
6	5	21	F	Filler	79	5	client	12	417.0	NA
6	5	21	F	Filler	79	5	didn't	13	318.0	NA
6	5	21	F	Filler	79	5	receive	14	366.0	NA
6	5	21	F	Filler	79	5	her	15	350.0	NA
6	5	21	F	Filler	79	5	car	16	333.0	NA
6	5	21	F	Filler	79	5	for	17	401.0	NA
6	5	21	F	Filler	79	5	six	18	382.0	NA
6	5	21	F	Filler	79	5	weeks.	19	618.0	NA
6	5	21	F	Question	79	5	NA	NA	1266.0	1
7	5	21	F	Filler	84	5	While	1	362.0	NA
7	5	21	F	Filler	84	5	talking	2	234.0	NA
7	5	21	F	Filler	84	5	to	3	433.0	NA
7	5	21	F	Filler	84	5	his	4	300.0	NA
7	5	21	F	Filler	84	5	sister	5	300.0	NA
7	5	21	F	Filler	84	5	the	6	316.0	NA
7	5	21	F	Filler	84	5	bishop	7	350.0	NA
7	5	21	F	Filler	84	5	with	8	303.0	NA
7	5	21	F	Filler	84	5	the	9	482.0	NA
7	5	21	F	Filler	84	5	funny	10	367.0	NA
7	5	21	F	Filler	84	5	eyebrows	11	367.0	NA
7	5	21	F	Filler	84	5	advocated	12	317.0	NA
7	5	21	F	Filler	84	5	strange	13	349.0	NA
7	5	21	F	Filler	84	5	beliefs.	14	416.0	NA
7	5	21	F	Question	84	5	NA	NA	3301.0	1
8	5	21	F	swets	20	3	The	1	362.0	NA
8	5	21	F	swets	20	3	sister	2	300.0	NA
8	5	21	F	swets	20	3	of	3	316.0	NA
8	5	21	F	swets	20	3	the	4	285.0	NA
8	5	21	F	swets	20	3	count	5	367.0	NA
8	5	21	F	swets	20	3	who	6	317.0	NA
8	5	21	F	swets	20	3	crippled	7	316.0	NA
8	5	21	F	swets	20	3	herself	8	351.0	NA
8	5	21	F	swets	20	3	by	9	548.0	NA
8	5	21	F	swets	20	3	falling	10	1885.0	NA
8	5	21	F	swets	20	3	off	11	400.0	NA
8	5	21	F	swets	20	3	a	12	433.0	NA
8	5	21	F	swets	20	3	horse	13	369.0	NA
8	5	21	F	swets	20	3	took	14	399.0	NA
8	5	21	F	swets	20	3	a	15	416.0	NA
8	5	21	F	swets	20	3	long	16	451.0	NA
8	5	21	F	swets	20	3	time	17	299.0	NA
8	5	21	F	swets	20	3	to	18	368.0	NA
8	5	21	F	swets	20	3	get	19	350.0	NA
8	5	21	F	swets	20	3	over	20	500.0	NA
8	5	21	F	swets	20	3	it.	21	333.0	NA
8	5	21	F	Question	20	3	NA	NA	2468.0	1
9	5	21	F	Filler	100	5	There	1	329.0	NA
9	5	21	F	Filler	100	5	was	2	266.0	NA
9	5	21	F	Filler	100	5	a	3	267.0	NA
9	5	21	F	Filler	100	5	large	4	284.0	NA
9	5	21	F	Filler	100	5	sale	5	334.0	NA
9	5	21	F	Filler	100	5	on	6	382.0	NA
9	5	21	F	Filler	100	5	stationary	7	318.0	NA
9	5	21	F	Filler	100	5	and	8	367.0	NA
9	5	21	F	Filler	100	5	office	9	299.0	NA
9	5	21	F	Filler	100	5	supplies	10	518.0	NA
9	5	21	F	Filler	100	5	at	11	350.0	NA
9	5	21	F	Filler	100	5	the	12	417.0	NA
9	5	21	F	Filler	100	5	student	13	450.0	NA
9	5	21	F	Filler	100	5	bookstore.	14	533.0	NA
9	5	21	F	Question	100	5	NA	NA	1467.0	1
10	5	21	F	swets	27	1	The	1	396.0	NA
10	5	21	F	swets	27	1	brother	2	300.0	NA
10	5	21	F	swets	27	1	of	3	267.0	NA
10	5	21	F	swets	27	1	the	4	332.0	NA
10	5	21	F	swets	27	1	butcher	5	300.0	NA
10	5	21	F	swets	27	1	who	6	634.0	NA
10	5	21	F	swets	27	1	invited	7	351.0	NA
10	5	21	F	swets	27	1	himself	8	367.0	NA
10	5	21	F	swets	27	1	to	9	466.0	NA
10	5	21	F	swets	27	1	the	10	384.0	NA
10	5	21	F	swets	27	1	party	11	366.0	NA
10	5	21	F	swets	27	1	enjoyed	12	334.0	NA
10	5	21	F	swets	27	1	it	13	365.0	NA
10	5	21	F	swets	27	1	quite	14	452.0	NA
10	5	21	F	swets	27	1	a	15	367.0	NA
10	5	21	F	swets	27	1	bit.	16	450.0	NA
10	5	21	F	Question	27	1	NA	NA	4401.0	0
11	5	21	F	Filler	40	4	The	1	577.0	NA
11	5	21	F	Filler	40	4	boy's	2	251.0	NA
11	5	21	F	Filler	40	4	mother	3	283.0	NA
11	5	21	F	Filler	40	4	was	4	283.0	NA
11	5	21	F	Filler	40	4	very	5	350.0	NA
11	5	21	F	Filler	40	4	happy	6	484.0	NA
11	5	21	F	Filler	40	4	to	7	266.0	NA
11	5	21	F	Filler	40	4	see	8	284.0	NA
11	5	21	F	Filler	40	4	good	9	250.0	NA
11	5	21	F	Filler	40	4	grades	10	300.0	NA
11	5	21	F	Filler	40	4	on	11	300.0	NA
11	5	21	F	Filler	40	4	his	12	282.0	NA
11	5	21	F	Filler	40	4	report	13	285.0	NA
11	5	21	F	Filler	40	4	card.	14	300.0	NA
11	5	21	F	Question	40	4	NA	NA	2333.0	1
12	5	21	F	Filler	107	5	The	1	345.0	NA
12	5	21	F	Filler	107	5	citizens	2	616.0	NA
12	5	21	F	Filler	107	5	were	3	483.0	NA
12	5	21	F	Filler	107	5	dissatisfied	4	482.0	NA
12	5	21	F	Filler	107	5	with	5	251.0	NA
12	5	21	F	Filler	107	5	the	6	350.0	NA
12	5	21	F	Filler	107	5	mayor	7	300.0	NA
12	5	21	F	Filler	107	5	of	8	284.0	NA
12	5	21	F	Filler	107	5	town	9	357.0	NA
12	5	21	F	Filler	107	5	because	10	341.0	NA
12	5	21	F	Filler	107	5	he	11	384.0	NA
12	5	21	F	Filler	107	5	had	12	383.0	NA
12	5	21	F	Filler	107	5	little	13	299.0	NA
12	5	21	F	Filler	107	5	experience.	14	601.0	NA
12	5	21	F	Question	107	5	NA	NA	1134.0	1
13	5	21	F	swets	12	1	The	1	479.0	NA
13	5	21	F	swets	12	1	maid	2	315.0	NA
13	5	21	F	swets	12	1	of	3	250.0	NA
13	5	21	F	swets	12	1	the	4	285.0	NA
13	5	21	F	swets	12	1	princess	5	283.0	NA
13	5	21	F	swets	12	1	who	6	367.0	NA
13	5	21	F	swets	12	1	scratched	7	283.0	NA
13	5	21	F	swets	12	1	herself	8	367.0	NA
13	5	21	F	swets	12	1	in	9	251.0	NA
13	5	21	F	swets	12	1	public	10	417.0	NA
13	5	21	F	swets	12	1	was	11	334.0	NA
13	5	21	F	swets	12	1	terribly	12	382.0	NA
13	5	21	F	swets	12	1	humiliated.	13	350.0	NA
13	5	21	F	Question	12	1	NA	NA	3834.0	1
14	5	21	F	Filler	68	4	The	1	328.0	NA
14	5	21	F	Filler	68	4	scientist	2	300.0	NA
14	5	21	F	Filler	68	4	published	3	284.0	NA
14	5	21	F	Filler	68	4	a	4	316.0	NA
14	5	21	F	Filler	68	4	paper	5	401.0	NA
14	5	21	F	Filler	68	4	in	6	333.0	NA
14	5	21	F	Filler	68	4	the	7	367.0	NA
14	5	21	F	Filler	68	4	journal	8	366.0	NA
14	5	21	F	Filler	68	4	of	9	418.0	NA
14	5	21	F	Filler	68	4	the	10	366.0	NA
14	5	21	F	Filler	68	4	foreign	11	434.0	NA
14	5	21	F	Filler	68	4	organization.	12	382.0	NA
14	5	21	F	Question	68	4	NA	NA	2000.0	0
15	5	21	F	Filler	52	4	The	1	329.0	NA
15	5	21	F	Filler	52	4	students	2	334.0	NA
15	5	21	F	Filler	52	4	were	3	265.0	NA
15	5	21	F	Filler	52	4	bored	4	300.0	NA
15	5	21	F	Filler	52	4	by	5	334.0	NA
15	5	21	F	Filler	52	4	the	6	383.0	NA
15	5	21	F	Filler	52	4	teacher.	7	301.0	NA
15	5	21	F	Question	52	4	NA	NA	1668.0	1
16	5	21	F	Filler	125	6	The	1	326.0	NA
16	5	21	F	Filler	125	6	bosses	2	335.0	NA
16	5	21	F	Filler	125	6	and	3	332.0	NA
16	5	21	F	Filler	125	6	secretaries	4	602.0	NA
16	5	21	F	Filler	125	6	took	5	365.0	NA
16	5	21	F	Filler	125	6	a	6	250.0	NA
16	5	21	F	Filler	125	6	long	7	286.0	NA
16	5	21	F	Filler	125	6	lunch	8	315.0	NA
16	5	21	F	Filler	125	6	together	9	335.0	NA
16	5	21	F	Filler	125	6	every	10	315.0	NA
16	5	21	F	Filler	125	6	Friday.	11	333.0	NA
16	5	21	F	Question	125	6	NA	NA	2135.0	1
17	5	21	F	Filler	115	6	As	1	528.0	NA
17	5	21	F	Filler	115	6	Elaine	2	335.0	NA
17	5	21	F	Filler	115	6	and	3	299.0	NA
17	5	21	F	Filler	115	6	Robert	4	300.0	NA
17	5	21	F	Filler	115	6	fought	5	334.0	NA
17	5	21	F	Filler	115	6	the	6	416.0	NA
17	5	21	F	Filler	115	6	mosquitoes	7	301.0	NA
17	5	21	F	Filler	115	6	whined	8	349.0	NA
17	5	21	F	Filler	115	6	annoyingly.	9	533.0	NA
17	5	21	F	Question	115	6	NA	NA	6569.0	1
18	5	21	F	Filler	80	5	The	1	1629.0	NA
18	5	21	F	Filler	80	5	stepfather	2	549.0	NA
18	5	21	F	Filler	80	5	of	3	419.0	NA
18	5	21	F	Filler	80	5	the	4	349.0	NA
18	5	21	F	Filler	80	5	nun	5	399.0	NA
18	5	21	F	Filler	80	5	with	6	369.0	NA
18	5	21	F	Filler	80	5	a	7	465.0	NA
18	5	21	F	Filler	80	5	long	8	285.0	NA
18	5	21	F	Filler	80	5	white	9	299.0	NA
18	5	21	F	Filler	80	5	beard	10	384.0	NA
18	5	21	F	Filler	80	5	became	11	348.0	NA
18	5	21	F	Filler	80	5	very	12	303.0	NA
18	5	21	F	Filler	80	5	ill.	13	333.0	NA
18	5	21	F	Question	80	5	NA	NA	7168.0	1
19	5	21	F	Filler	138	7	While	1	764.0	NA
19	5	21	F	Filler	138	7	Pedro	2	832.0	NA
19	5	21	F	Filler	138	7	was	3	1151.0	NA
19	5	21	F	Filler	138	7	swimming	4	1383.0	NA
19	5	21	F	Filler	138	7	the	5	384.0	NA
19	5	21	F	Filler	138	7	lifeguard	6	399.0	NA
19	5	21	F	Filler	138	7	sat	7	503.0	NA
19	5	21	F	Filler	138	7	in	8	317.0	NA
19	5	21	F	Filler	138	7	his	9	383.0	NA
19	5	21	F	Filler	138	7	chair.	10	467.0	NA
19	5	21	F	Question	138	7	NA	NA	2599.0	0
20	5	21	F	Filler	75	5	The	1	428.0	NA
20	5	21	F	Filler	75	5	musician	2	333.0	NA
20	5	21	F	Filler	75	5	shocked	3	317.0	NA
20	5	21	F	Filler	75	5	the	4	351.0	NA
20	5	21	F	Filler	75	5	audience	5	416.0	NA
20	5	21	F	Filler	75	5	because	6	349.0	NA
20	5	21	F	Filler	75	5	they	7	333.0	NA
20	5	21	F	Filler	75	5	did	8	301.0	NA
20	5	21	F	Filler	75	5	not	9	384.0	NA
20	5	21	F	Filler	75	5	realize	10	333.0	NA
20	5	21	F	Filler	75	5	what	11	333.0	NA
20	5	21	F	Filler	75	5	these	12	284.0	NA
20	5	21	F	Filler	75	5	shows	13	334.0	NA
20	5	21	F	Filler	75	5	were	14	366.0	NA
20	5	21	F	Filler	75	5	like.	15	350.0	NA
20	5	21	F	Question	75	5	NA	NA	2701.0	1
21	5	21	F	swets	7	2	The	1	45.0	NA
21	5	21	F	swets	7	2	nephew	2	2567.0	NA
21	5	21	F	swets	7	2	of	3	367.0	NA
21	5	21	F	swets	7	2	the	4	333.0	NA
21	5	21	F	swets	7	2	waitress	5	666.0	NA
21	5	21	F	swets	7	2	who	6	369.0	NA
21	5	21	F	swets	7	2	hurt	7	316.0	NA
21	5	21	F	swets	7	2	herself	8	333.0	NA
21	5	21	F	swets	7	2	on	9	366.0	NA
21	5	21	F	swets	7	2	the	10	484.0	NA
21	5	21	F	swets	7	2	bicycle	11	317.0	NA
21	5	21	F	swets	7	2	was	12	317.0	NA
21	5	21	F	swets	7	2	angry	13	382.0	NA
21	5	21	F	swets	7	2	about	14	468.0	NA
21	5	21	F	swets	7	2	the	15	351.0	NA
21	5	21	F	swets	7	2	incident.	16	432.0	NA
21	5	21	F	Question	7	2	NA	NA	867.0	0
22	5	21	F	Filler	90	5	The	1	345.0	NA
22	5	21	F	Filler	90	5	artist	2	283.0	NA
22	5	21	F	Filler	90	5	was	3	333.0	NA
22	5	21	F	Filler	90	5	not	4	334.0	NA
22	5	21	F	Filler	90	5	satisfied	5	333.0	NA
22	5	21	F	Filler	90	5	with	6	401.0	NA
22	5	21	F	Filler	90	5	his	7	366.0	NA
22	5	21	F	Filler	90	5	painting	8	566.0	NA
22	5	21	F	Filler	90	5	because	9	367.0	NA
22	5	21	F	Filler	90	5	the	10	352.0	NA
22	5	21	F	Filler	90	5	shading	11	331.0	NA
22	5	21	F	Filler	90	5	was	12	334.0	NA
22	5	21	F	Filler	90	5	off.	13	400.0	NA
22	5	21	F	Question	90	5	NA	NA	3269.0	1
23	5	21	F	Filler	117	6	While	1	311.0	NA
23	5	21	F	Filler	117	6	Mike	2	317.0	NA
23	5	21	F	Filler	117	6	coughed	3	317.0	NA
23	5	21	F	Filler	117	6	Janet	4	333.0	NA
23	5	21	F	Filler	117	6	went	5	352.0	NA
23	5	21	F	Filler	117	6	out	6	300.0	NA
23	5	21	F	Filler	117	6	to	7	333.0	NA
23	5	21	F	Filler	117	6	get	8	299.0	NA
23	5	21	F	Filler	117	6	some	9	350.0	NA
23	5	21	F	Filler	117	6	cough	10	367.0	NA
23	5	21	F	Filler	117	6	medicine.	11	367.0	NA
23	5	21	F	Question	117	6	NA	NA	2067.0	1
24	5	21	F	Filler	124	6	The	1	378.0	NA
24	5	21	F	Filler	124	6	mothers	2	433.0	NA
24	5	21	F	Filler	124	6	and	3	334.0	NA
24	5	21	F	Filler	124	6	teachers	4	402.0	NA
24	5	21	F	Filler	124	6	played	5	266.0	NA
24	5	21	F	Filler	124	6	tennis	6	351.0	NA
24	5	21	F	Filler	124	6	after	7	316.0	NA
24	5	21	F	Filler	124	6	the	8	484.0	NA
24	5	21	F	Filler	124	6	kids	9	316.0	NA
24	5	21	F	Filler	124	6	left.	10	399.0	NA
24	5	21	F	Question	124	6	NA	NA	1068.0	1
25	5	21	F	Filler	130	7	While	1	328.0	NA
25	5	21	F	Filler	130	7	Margo	2	300.0	NA
25	5	21	F	Filler	130	7	bathed	3	333.0	NA
25	5	21	F	Filler	130	7	the	4	385.0	NA
25	5	21	F	Filler	130	7	dog	5	248.0	NA
25	5	21	F	Filler	130	7	barked	6	418.0	NA
25	5	21	F	Filler	130	7	in	7	384.0	NA
25	5	21	F	Filler	130	7	the	8	300.0	NA
25	5	21	F	Filler	130	7	yard.	9	398.0	NA
25	5	21	F	Question	130	7	NA	NA	1634.0	1
26	5	21	F	Filler	66	4	The	1	377.0	NA
26	5	21	F	Filler	66	4	rare	2	900.0	NA
26	5	21	F	Filler	66	4	and	3	717.0	NA
26	5	21	F	Filler	66	4	exotic	4	1085.0	NA
26	5	21	F	Filler	66	4	monkey	5	400.0	NA
26	5	21	F	Filler	66	4	was	6	365.0	NA
26	5	21	F	Filler	66	4	the	7	385.0	NA
26	5	21	F	Filler	66	4	center	8	334.0	NA
26	5	21	F	Filler	66	4	of	9	333.0	NA
26	5	21	F	Filler	66	4	attention	10	367.0	NA
26	5	21	F	Filler	66	4	at	11	400.0	NA
26	5	21	F	Filler	66	4	the	12	298.0	NA
26	5	21	F	Filler	66	4	zoo.	13	368.0	NA
26	5	21	F	Question	66	4	NA	NA	1268.0	1
27	5	21	F	swets	31	2	The	1	362.0	NA
27	5	21	F	swets	31	2	aunt	2	281.0	NA
27	5	21	F	swets	31	2	of	3	285.0	NA
27	5	21	F	swets	31	2	the	4	300.0	NA
27	5	21	F	swets	31	2	milkman	5	283.0	NA
27	5	21	F	swets	31	2	who	6	301.0	NA
27	5	21	F	swets	31	2	had	7	317.0	NA
27	5	21	F	swets	31	2	to	8	366.0	NA
27	5	21	F	swets	31	2	support	9	368.0	NA
27	5	21	F	swets	31	2	himself	10	216.0	NA
27	5	21	F	swets	31	2	with	11	283.0	NA
27	5	21	F	swets	31	2	a	12	285.0	NA
27	5	21	F	swets	31	2	low	13	314.0	NA
27	5	21	F	swets	31	2	income	14	251.0	NA
27	5	21	F	swets	31	2	liked	15	250.0	NA
27	5	21	F	swets	31	2	to	16	1085.0	NA
27	5	21	F	swets	31	2	fish.	17	301.0	NA
27	5	21	F	Question	31	2	NA	NA	3633.0	1
28	5	21	F	Filler	106	5	On	1	495.0	NA
28	5	21	F	Filler	106	5	the	2	133.0	NA
28	5	21	F	Filler	106	5	last	3	567.0	NA
28	5	21	F	Filler	106	5	night	4	316.0	NA
28	5	21	F	Filler	106	5	of	5	451.0	NA
28	5	21	F	Filler	106	5	summer	6	266.0	NA
28	5	21	F	Filler	106	5	camp	7	267.0	NA
28	5	21	F	Filler	106	5	the	8	366.0	NA
28	5	21	F	Filler	106	5	counselors	9	300.0	NA
28	5	21	F	Filler	106	5	let	10	268.0	NA
28	5	21	F	Filler	106	5	the	11	300.0	NA
28	5	21	F	Filler	106	5	children	12	250.0	NA
28	5	21	F	Filler	106	5	stay	13	317.0	NA
28	5	21	F	Filler	106	5	up	14	368.0	NA
28	5	21	F	Filler	106	5	until	15	315.0	NA
28	5	21	F	Filler	106	5	midnight.	16	250.0	NA
28	5	21	F	Question	106	5	NA	NA	3001.0	1
29	5	21	F	Filler	101	5	The	1	329.0	NA
29	5	21	F	Filler	101	5	friendly	2	234.0	NA
29	5	21	F	Filler	101	5	woman	3	266.0	NA
29	5	21	F	Filler	101	5	was	4	267.0	NA
29	5	21	F	Filler	101	5	insulted	5	266.0	NA
29	5	21	F	Filler	101	5	by	6	250.0	NA
29	5	21	F	Filler	101	5	the	7	317.0	NA
29	5	21	F	Filler	101	5	rude	8	251.0	NA
29	5	21	F	Filler	101	5	stranger	9	299.0	NA
29	5	21	F	Filler	101	5	because	10	401.0	NA
29	5	21	F	Filler	101	5	he	11	267.0	NA
29	5	21	F	Filler	101	5	didn't	12	266.0	NA
29	5	21	F	Filler	101	5	smile	13	284.0	NA
29	5	21	F	Filler	101	5	at	14	332.0	NA
29	5	21	F	Filler	101	5	her.	15	267.0	NA
29	5	21	F	Question	101	5	NA	NA	2536.0	1
30	5	21	F	Filler	45	4	The	1	245.0	NA
30	5	21	F	Filler	45	4	plumber	2	266.0	NA
30	5	21	F	Filler	45	4	repaired	3	167.0	NA
30	5	21	F	Filler	45	4	the	4	250.0	NA
30	5	21	F	Filler	45	4	sink	5	234.0	NA
30	5	21	F	Filler	45	4	of	6	249.0	NA
30	5	21	F	Filler	45	4	the	7	234.0	NA
30	5	21	F	Filler	45	4	tenant	8	233.0	NA
30	5	21	F	Filler	45	4	because	9	266.0	NA
30	5	21	F	Filler	45	4	he	10	219.0	NA
30	5	21	F	Filler	45	4	had	11	251.0	NA
30	5	21	F	Filler	45	4	just	12	316.0	NA
30	5	21	F	Filler	45	4	moved	13	316.0	NA
30	5	21	F	Filler	45	4	in.	14	301.0	NA
30	5	21	F	Question	45	4	NA	NA	2199.0	1
31	5	21	F	swets	16	2	The	1	410.0	NA
31	5	21	F	swets	16	2	widow	2	267.0	NA
31	5	21	F	swets	16	2	of	3	335.0	NA
31	5	21	F	swets	16	2	the	4	183.0	NA
31	5	21	F	swets	16	2	general	5	266.0	NA
31	5	21	F	swets	16	2	who	6	201.0	NA
31	5	21	F	swets	16	2	sacrificed	7	199.0	NA
31	5	21	F	swets	16	2	himself	8	267.0	NA
31	5	21	F	swets	16	2	for	9	218.0	NA
31	5	21	F	swets	16	2	the	10	215.0	NA
31	5	21	F	swets	16	2	cause	11	200.0	NA
31	5	21	F	swets	16	2	was	12	201.0	NA
31	5	21	F	swets	16	2	the	13	201.0	NA
31	5	21	F	swets	16	2	subject	14	216.0	NA
31	5	21	F	swets	16	2	of	15	285.0	NA
31	5	21	F	swets	16	2	the	16	249.0	NA
31	5	21	F	swets	16	2	biography.	17	300.0	NA
31	5	21	F	Question	16	2	NA	NA	1766.0	1
32	5	21	F	Filler	143	7	The	1	4345.0	NA
32	5	21	F	Filler	143	7	lawyer	2	1302.0	NA
32	5	21	F	Filler	143	7	and	3	201.0	NA
32	5	21	F	Filler	143	7	defendant	4	200.0	NA
32	5	21	F	Filler	143	7	whispered	5	265.0	NA
32	5	21	F	Filler	143	7	furiously	6	233.0	NA
32	5	21	F	Filler	143	7	during	7	469.0	NA
32	5	21	F	Filler	143	7	the	8	300.0	NA
32	5	21	F	Filler	143	7	recess.	9	248.0	NA
32	5	21	F	Question	143	7	NA	NA	2801.0	0
33	5	21	F	Filler	98	5	The	1	145.0	NA
33	5	21	F	Filler	98	5	husband	2	400.0	NA
33	5	21	F	Filler	98	5	of	3	183.0	NA
33	5	21	F	Filler	98	5	the	4	217.0	NA
33	5	21	F	Filler	98	5	bestselling	5	234.0	NA
33	5	21	F	Filler	98	5	novelist	6	217.0	NA
33	5	21	F	Filler	98	5	was	7	200.0	NA
33	5	21	F	Filler	98	5	into	8	183.0	NA
33	5	21	F	Filler	98	5	collecting	9	250.0	NA
33	5	21	F	Filler	98	5	antiques.	10	233.0	NA
33	5	21	F	Question	98	5	NA	NA	3934.0	1
34	5	21	F	Filler	58	4	The	1	1096.0	NA
34	5	21	F	Filler	58	4	white	2	415.0	NA
34	5	21	F	Filler	58	4	dog	3	668.0	NA
34	5	21	F	Filler	58	4	bit	4	432.0	NA
34	5	21	F	Filler	58	4	the	5	467.0	NA
34	5	21	F	Filler	58	4	ankle	6	351.0	NA
34	5	21	F	Filler	58	4	of	7	415.0	NA
34	5	21	F	Filler	58	4	the	8	552.0	NA
34	5	21	F	Filler	58	4	child.	9	499.0	NA
34	5	21	F	Question	58	4	NA	NA	1599.0	0
35	5	21	F	swets	22	2	The	1	162.0	NA
35	5	21	F	swets	22	2	niece	2	433.0	NA
35	5	21	F	swets	22	2	of	3	217.0	NA
35	5	21	F	swets	22	2	the	4	267.0	NA
35	5	21	F	swets	22	2	commander	5	299.0	NA
35	5	21	F	swets	22	2	who	6	234.0	NA
35	5	21	F	swets	22	2	calmed	7	216.0	NA
35	5	21	F	swets	22	2	himself	8	318.0	NA
35	5	21	F	swets	22	2	after	9	199.0	NA
35	5	21	F	swets	22	2	the	10	200.0	NA
35	5	21	F	swets	22	2	tragedy	11	266.0	NA
35	5	21	F	swets	22	2	was	12	250.0	NA
35	5	21	F	swets	22	2	waiting	13	300.0	NA
35	5	21	F	swets	22	2	for	14	219.0	NA
35	5	21	F	swets	22	2	the	15	267.0	NA
35	5	21	F	swets	22	2	doctor.	16	265.0	NA
35	5	21	F	Question	22	2	NA	NA	2166.0	0
36	5	21	F	Filler	73	5	My	1	397.0	NA
36	5	21	F	Filler	73	5	cousins	2	267.0	NA
36	5	21	F	Filler	73	5	admired	3	265.0	NA
36	5	21	F	Filler	73	5	the	4	251.0	NA
36	5	21	F	Filler	73	5	singer	5	216.0	NA
36	5	21	F	Filler	73	5	although	6	266.0	NA
36	5	21	F	Filler	73	5	she	7	301.0	NA
36	5	21	F	Filler	73	5	never	8	217.0	NA
36	5	21	F	Filler	73	5	became	9	201.0	NA
36	5	21	F	Filler	73	5	popular.	10	264.0	NA
36	5	21	F	Question	73	5	NA	NA	4969.0	1
37	5	21	F	Filler	48	4	The	1	528.0	NA
37	5	21	F	Filler	48	4	police	2	217.0	NA
37	5	21	F	Filler	48	4	arrested	3	234.0	NA
37	5	21	F	Filler	48	4	the	4	218.0	NA
37	5	21	F	Filler	48	4	sister	5	231.0	NA
37	5	21	F	Filler	48	4	of	6	284.0	NA
37	5	21	F	Filler	48	4	the	7	251.0	NA
37	5	21	F	Filler	48	4	handyman	8	334.0	NA
37	5	21	F	Filler	48	4	after	9	415.0	NA
37	5	21	F	Filler	48	4	she	10	284.0	NA
37	5	21	F	Filler	48	4	recently	11	416.0	NA
37	5	21	F	Filler	48	4	gave	12	718.0	NA
37	5	21	F	Filler	48	4	birth	13	266.0	NA
37	5	21	F	Filler	48	4	to	14	285.0	NA
37	5	21	F	Filler	48	4	twins.	15	249.0	NA
37	5	21	F	Question	48	4	NA	NA	1865.0	1
38	5	21	F	swets	29	3	The	1	2996.0	NA
38	5	21	F	swets	29	3	daughter	2	666.0	NA
38	5	21	F	swets	29	3	of	3	284.0	NA
38	5	21	F	swets	29	3	the	4	300.0	NA
38	5	21	F	swets	29	3	colonel	5	184.0	NA
38	5	21	F	swets	29	3	who	6	250.0	NA
38	5	21	F	swets	29	3	enjoyed	7	267.0	NA
38	5	21	F	swets	29	3	herself	8	183.0	NA
38	5	21	F	swets	29	3	a	9	300.0	NA
38	5	21	F	swets	29	3	lot	10	285.0	NA
38	5	21	F	swets	29	3	was	11	249.0	NA
38	5	21	F	swets	29	3	out	12	233.0	NA
38	5	21	F	swets	29	3	on	13	283.0	NA
38	5	21	F	swets	29	3	the	14	201.0	NA
38	5	21	F	swets	29	3	balcony.	15	266.0	NA
38	5	21	F	Question	29	3	NA	NA	2002.0	1
39	5	21	F	Filler	67	4	The	1	344.0	NA
39	5	21	F	Filler	67	4	restaurant	2	266.0	NA
39	5	21	F	Filler	67	4	was	3	218.0	NA
39	5	21	F	Filler	67	4	famous	4	232.0	NA
39	5	21	F	Filler	67	4	for	5	201.0	NA
39	5	21	F	Filler	67	4	its	6	266.0	NA
39	5	21	F	Filler	67	4	French	7	266.0	NA
39	5	21	F	Filler	67	4	pastries	8	251.0	NA
39	5	21	F	Filler	67	4	and	9	233.0	NA
39	5	21	F	Filler	67	4	fine	10	251.0	NA
39	5	21	F	Filler	67	4	wines.	11	234.0	NA
39	5	21	F	Question	67	4	NA	NA	1199.0	1
40	5	21	F	Filler	131	7	While	1	329.0	NA
40	5	21	F	Filler	131	7	Jamie	2	199.0	NA
40	5	21	F	Filler	131	7	dried	3	202.0	NA
40	5	21	F	Filler	131	7	off	4	265.0	NA
40	5	21	F	Filler	131	7	the	5	219.0	NA
40	5	21	F	Filler	131	7	table	6	231.0	NA
40	5	21	F	Filler	131	7	his	7	233.0	NA
40	5	21	F	Filler	131	7	sunglasses	8	267.0	NA
40	5	21	F	Filler	131	7	disappeared.	9	217.0	NA
40	5	21	F	Question	131	7	NA	NA	1733.0	0
41	5	21	F	Filler	47	4	The	1	579.0	NA
41	5	21	F	Filler	47	4	boys	2	234.0	NA
41	5	21	F	Filler	47	4	all	3	234.0	NA
41	5	21	F	Filler	47	4	admired	4	215.0	NA
41	5	21	F	Filler	47	4	the	5	218.0	NA
41	5	21	F	Filler	47	4	singer	6	265.0	NA
41	5	21	F	Filler	47	4	of	7	301.0	NA
41	5	21	F	Filler	47	4	the	8	232.0	NA
41	5	21	F	Filler	47	4	song	9	250.0	NA
41	5	21	F	Filler	47	4	with	10	285.0	NA
41	5	21	F	Filler	47	4	the	11	249.0	NA
41	5	21	F	Filler	47	4	long	12	316.0	NA
41	5	21	F	Filler	47	4	eyelashes.	13	301.0	NA
41	5	21	F	Question	47	4	NA	NA	3100.0	1
42	5	21	F	swets	17	3	The	1	512.0	NA
42	5	21	F	swets	17	3	bank	2	233.0	NA
42	5	21	F	swets	17	3	manager	3	266.0	NA
42	5	21	F	swets	17	3	of	4	184.0	NA
42	5	21	F	swets	17	3	the	5	233.0	NA
42	5	21	F	swets	17	3	heiress	6	250.0	NA
42	5	21	F	swets	17	3	who	7	217.0	NA
42	5	21	F	swets	17	3	bankrupted	8	267.0	NA
42	5	21	F	swets	17	3	himself	9	266.0	NA
42	5	21	F	swets	17	3	last	10	285.0	NA
42	5	21	F	swets	17	3	year	11	299.0	NA
42	5	21	F	swets	17	3	still	12	351.0	NA
42	5	21	F	swets	17	3	made	13	282.0	NA
42	5	21	F	swets	17	3	risky	14	418.0	NA
42	5	21	F	swets	17	3	investments.	15	384.0	NA
42	5	21	F	Question	17	3	NA	NA	3199.0	1
43	5	21	F	Filler	56	4	The	1	428.0	NA
43	5	21	F	Filler	56	4	actor	2	282.0	NA
43	5	21	F	Filler	56	4	said	3	200.0	NA
43	5	21	F	Filler	56	4	the	4	235.0	NA
43	5	21	F	Filler	56	4	audiences	5	300.0	NA
43	5	21	F	Filler	56	4	believed	6	166.0	NA
43	5	21	F	Filler	56	4	the	7	267.0	NA
43	5	21	F	Filler	56	4	nasty	8	300.0	NA
43	5	21	F	Filler	56	4	remarks	9	333.0	NA
43	5	21	F	Filler	56	4	made	10	151.0	NA
43	5	21	F	Filler	56	4	by	11	166.0	NA
43	5	21	F	Filler	56	4	the	12	301.0	NA
43	5	21	F	Filler	56	4	film	13	382.0	NA
43	5	21	F	Filler	56	4	critic.	14	584.0	NA
43	5	21	F	Question	56	4	NA	NA	4401.0	0
44	5	21	F	Filler	139	7	Laurie	1	462.0	NA
44	5	21	F	Filler	139	7	asked	2	284.0	NA
44	5	21	F	Filler	139	7	which	3	266.0	NA
44	5	21	F	Filler	139	7	truck	4	201.0	NA
44	5	21	F	Filler	139	7	the	5	299.0	NA
44	5	21	F	Filler	139	7	dealership	6	283.0	NA
44	5	21	F	Filler	139	7	sold	7	234.0	NA
44	5	21	F	Filler	139	7	but	8	233.0	NA
44	5	21	F	Filler	139	7	didn't	9	235.0	NA
44	5	21	F	Filler	139	7	paint	10	349.0	NA
44	5	21	F	Filler	139	7	completely.	11	268.0	NA
44	5	21	F	Question	139	7	NA	NA	1832.0	1
45	5	21	F	Filler	109	6	While	1	463.0	NA
45	5	21	F	Filler	109	6	the	2	484.0	NA
45	5	21	F	Filler	109	6	farmer	3	365.0	NA
45	5	21	F	Filler	109	6	steered	4	285.0	NA
45	5	21	F	Filler	109	6	the	5	299.0	NA
45	5	21	F	Filler	109	6	truck	6	301.0	NA
45	5	21	F	Filler	109	6	the	7	267.0	NA
45	5	21	F	Filler	109	6	tractor	8	232.0	NA
45	5	21	F	Filler	109	6	pulled	9	333.0	NA
45	5	21	F	Filler	109	6	the	10	285.0	NA
45	5	21	F	Filler	109	6	plough.	11	332.0	NA
45	5	21	F	Question	109	6	NA	NA	1901.0	1
46	5	21	F	Filler	69	4	The	1	361.0	NA
46	5	21	F	Filler	69	4	tiny	2	266.0	NA
46	5	21	F	Filler	69	4	child	3	200.0	NA
46	5	21	F	Filler	69	4	rolled	4	318.0	NA
46	5	21	F	Filler	69	4	the	5	249.0	NA
46	5	21	F	Filler	69	4	piece	6	235.0	NA
46	5	21	F	Filler	69	4	of	7	333.0	NA
46	5	21	F	Filler	69	4	the	8	300.0	NA
46	5	21	F	Filler	69	4	toy	9	265.0	NA
46	5	21	F	Filler	69	4	into	10	318.0	NA
46	5	21	F	Filler	69	4	the	11	300.0	NA
46	5	21	F	Filler	69	4	next	12	334.0	NA
46	5	21	F	Filler	69	4	room	13	316.0	NA
46	5	21	F	Filler	69	4	after	14	300.0	NA
46	5	21	F	Filler	69	4	it	15	268.0	NA
46	5	21	F	Filler	69	4	broke	16	398.0	NA
46	5	21	F	Filler	69	4	off.	17	417.0	NA
46	5	21	F	Question	69	4	NA	NA	1668.0	1
47	5	21	F	Filler	59	4	The	1	713.0	NA
47	5	21	F	Filler	59	4	conductor	2	312.0	NA
47	5	21	F	Filler	59	4	of	3	237.0	NA
47	5	21	F	Filler	59	4	the	4	267.0	NA
47	5	21	F	Filler	59	4	orchestra	5	232.0	NA
47	5	21	F	Filler	59	4	with	6	235.0	NA
47	5	21	F	Filler	59	4	the	7	233.0	NA
47	5	21	F	Filler	59	4	bald	8	233.0	NA
47	5	21	F	Filler	59	4	head	9	234.0	NA
47	5	21	F	Filler	59	4	plays	10	266.0	NA
47	5	21	F	Filler	59	4	excellently.	11	267.0	NA
47	5	21	F	Question	59	4	NA	NA	1100.0	1
48	5	21	F	swets	14	3	The	1	295.0	NA
48	5	21	F	swets	14	3	father	2	234.0	NA
48	5	21	F	swets	14	3	of	3	232.0	NA
48	5	21	F	swets	14	3	the	4	251.0	NA
48	5	21	F	swets	14	3	nurse	5	234.0	NA
48	5	21	F	swets	14	3	who	6	299.0	NA
48	5	21	F	swets	14	3	injured	7	233.0	NA
48	5	21	F	swets	14	3	himself	8	284.0	NA
48	5	21	F	swets	14	3	last	9	333.0	NA
48	5	21	F	swets	14	3	summer	10	235.0	NA
48	5	21	F	swets	14	3	had	11	333.0	NA
48	5	21	F	swets	14	3	lived	12	365.0	NA
48	5	21	F	swets	14	3	in	13	252.0	NA
48	5	21	F	swets	14	3	Wales.	14	433.0	NA
48	5	21	F	Question	14	3	NA	NA	3899.0	0
49	5	21	F	Filler	62	4	After	1	744.0	NA
49	5	21	F	Filler	62	4	much	2	235.0	NA
49	5	21	F	Filler	62	4	deliberation	3	266.0	NA
49	5	21	F	Filler	62	4	the	4	251.0	NA
49	5	21	F	Filler	62	4	jury	5	298.0	NA
49	5	21	F	Filler	62	4	found	6	334.0	NA
49	5	21	F	Filler	62	4	the	7	218.0	NA
49	5	21	F	Filler	62	4	defendant	8	299.0	NA
49	5	21	F	Filler	62	4	not	9	268.0	NA
49	5	21	F	Filler	62	4	guilty.	10	400.0	NA
49	5	21	F	Question	62	4	NA	NA	2567.0	1
50	5	21	F	Filler	65	4	Even	1	1112.0	NA
50	5	21	F	Filler	65	4	though	2	367.0	NA
50	5	21	F	Filler	65	4	the	3	316.0	NA
50	5	21	F	Filler	65	4	goalie	4	450.0	NA
50	5	21	F	Filler	65	4	had	5	267.0	NA
50	5	21	F	Filler	65	4	a	6	334.0	NA
50	5	21	F	Filler	65	4	bad	7	300.0	NA
50	5	21	F	Filler	65	4	cold	8	249.0	NA
50	5	21	F	Filler	65	4	the	9	333.0	NA
50	5	21	F	Filler	65	4	team	10	384.0	NA
50	5	21	F	Filler	65	4	was	11	284.0	NA
50	5	21	F	Filler	65	4	preparing	12	251.0	NA
50	5	21	F	Filler	65	4	for	13	384.0	NA
50	5	21	F	Filler	65	4	the	14	381.0	NA
50	5	21	F	Filler	65	4	tournament.	15	268.0	NA
50	5	21	F	Question	65	4	NA	NA	4501.0	1
51	5	21	F	Filler	64	4	Because	1	461.0	NA
51	5	21	F	Filler	64	4	a	2	216.0	NA
51	5	21	F	Filler	64	4	fire	3	217.0	NA
51	5	21	F	Filler	64	4	alarm	4	100.0	NA
51	5	21	F	Filler	64	4	interrupted	5	266.0	NA
51	5	21	F	Filler	64	4	the	6	285.0	NA
51	5	21	F	Filler	64	4	exam	7	200.0	NA
51	5	21	F	Filler	64	4	the	8	233.0	NA
51	5	21	F	Filler	64	4	scores	9	284.0	NA
51	5	21	F	Filler	64	4	were	10	334.0	NA
51	5	21	F	Filler	64	4	disqualified.	11	232.0	NA
51	5	21	F	Question	64	4	NA	NA	6168.0	1
52	5	21	F	Filler	71	4	The	1	662.0	NA
52	5	21	F	Filler	71	4	elderly	2	252.0	NA
52	5	21	F	Filler	71	4	woman	3	216.0	NA
52	5	21	F	Filler	71	4	locked	4	249.0	NA
52	5	21	F	Filler	71	4	and	5	250.0	NA
52	5	21	F	Filler	71	4	bolted	6	268.0	NA
52	5	21	F	Filler	71	4	her	7	433.0	NA
52	5	21	F	Filler	71	4	door	8	249.0	NA
52	5	21	F	Filler	71	4	every	9	333.0	NA
52	5	21	F	Filler	71	4	night	10	251.0	NA
52	5	21	F	Filler	71	4	after	11	400.0	NA
52	5	21	F	Filler	71	4	the	12	234.0	NA
52	5	21	F	Filler	71	4	robbers	13	299.0	NA
52	5	21	F	Filler	71	4	took	14	250.0	NA
52	5	21	F	Filler	71	4	her	15	285.0	NA
52	5	21	F	Filler	71	4	best	16	267.0	NA
52	5	21	F	Filler	71	4	pearls.	17	317.0	NA
52	5	21	F	Question	71	4	NA	NA	1032.0	1
53	5	21	F	swets	36	1	The	1	579.0	NA
53	5	21	F	swets	36	1	daughter	2	232.0	NA
53	5	21	F	swets	36	1	of	3	269.0	NA
53	5	21	F	swets	36	1	the	4	283.0	NA
53	5	21	F	swets	36	1	saleswoman	5	533.0	NA
53	5	21	F	swets	36	1	who	6	266.0	NA
53	5	21	F	swets	36	1	talked	7	184.0	NA
53	5	21	F	swets	36	1	to	8	216.0	NA
53	5	21	F	swets	36	1	herself	9	184.0	NA
53	5	21	F	swets	36	1	all	10	217.0	NA
53	5	21	F	swets	36	1	the	11	200.0	NA
53	5	21	F	swets	36	1	time	12	249.0	NA
53	5	21	F	swets	36	1	walked	13	184.0	NA
53	5	21	F	swets	36	1	into	14	251.0	NA
53	5	21	F	swets	36	1	the	15	134.0	NA
53	5	21	F	swets	36	1	room.	16	232.0	NA
53	5	21	F	Question	36	1	NA	NA	2267.0	1
54	5	21	F	Filler	136	7	While	1	1061.0	NA
54	5	21	F	Filler	136	7	Mark	2	1201.0	NA
54	5	21	F	Filler	136	7	and	3	217.0	NA
54	5	21	F	Filler	136	7	Jenny	4	233.0	NA
54	5	21	F	Filler	136	7	were	5	217.0	NA
54	5	21	F	Filler	136	7	cuddling	6	333.0	NA
54	5	21	F	Filler	136	7	the	7	217.0	NA
54	5	21	F	Filler	136	7	older	8	300.0	NA
54	5	21	F	Filler	136	7	dogs	9	250.0	NA
54	5	21	F	Filler	136	7	the	10	283.0	NA
54	5	21	F	Filler	136	7	puppies	11	234.0	NA
54	5	21	F	Filler	136	7	nipped	12	299.0	NA
54	5	21	F	Filler	136	7	at	13	284.0	NA
54	5	21	F	Filler	136	7	their	14	367.0	NA
54	5	21	F	Filler	136	7	feet.	15	302.0	NA
54	5	21	F	Question	136	7	NA	NA	1632.0	1
55	5	21	F	Filler	113	6	While	1	195.0	NA
55	5	21	F	Filler	113	6	Noah	2	365.0	NA
55	5	21	F	Filler	113	6	was	3	235.0	NA
55	5	21	F	Filler	113	6	waking	4	234.0	NA
55	5	21	F	Filler	113	6	up	5	201.0	NA
55	5	21	F	Filler	113	6	the	6	267.0	NA
55	5	21	F	Filler	113	6	man	7	200.0	NA
55	5	21	F	Filler	113	6	the	8	133.0	NA
55	5	21	F	Filler	113	6	neighbor	9	566.0	NA
55	5	21	F	Filler	113	6	coughed	10	334.0	NA
55	5	21	F	Filler	113	6	loudly.	11	267.0	NA
55	5	21	F	Question	113	6	NA	NA	1365.0	1
56	5	21	F	swets	33	1	The	1	2079.0	NA
56	5	21	F	swets	33	1	butler	2	518.0	NA
56	5	21	F	swets	33	1	of	3	315.0	NA
56	5	21	F	swets	33	1	the	4	184.0	NA
56	5	21	F	swets	33	1	actor	5	283.0	NA
56	5	21	F	swets	33	1	who	6	217.0	NA
56	5	21	F	swets	33	1	did	7	283.0	NA
56	5	21	F	swets	33	1	not	8	301.0	NA
56	5	21	F	swets	33	1	like	9	250.0	NA
56	5	21	F	swets	33	1	himself	10	249.0	NA
56	5	21	F	swets	33	1	very	11	301.0	NA
56	5	21	F	swets	33	1	much	12	266.0	NA
56	5	21	F	swets	33	1	caught	13	301.0	NA
56	5	21	F	swets	33	1	the	14	283.0	NA
56	5	21	F	swets	33	1	armed	15	284.0	NA
56	5	21	F	swets	33	1	robber.	16	332.0	NA
56	5	21	F	Question	33	1	NA	NA	6936.0	1
57	5	21	F	Filler	51	4	The	1	412.0	NA
57	5	21	F	Filler	51	4	students	2	300.0	NA
57	5	21	F	Filler	51	4	were	3	267.0	NA
57	5	21	F	Filler	51	4	in	4	316.0	NA
57	5	21	F	Filler	51	4	a	5	268.0	NA
57	5	21	F	Filler	51	4	frenzy	6	232.0	NA
57	5	21	F	Filler	51	4	because	7	301.0	NA
57	5	21	F	Filler	51	4	they	8	283.0	NA
57	5	21	F	Filler	51	4	wanted	9	234.0	NA
57	5	21	F	Filler	51	4	tickets	10	282.0	NA
57	5	21	F	Filler	51	4	for	11	352.0	NA
57	5	21	F	Filler	51	4	the	12	349.0	NA
57	5	21	F	Filler	51	4	game	13	251.0	NA
57	5	21	F	Filler	51	4	tonight.	14	367.0	NA
57	5	21	F	Question	51	4	NA	NA	4333.0	1
58	5	21	F	swets	19	2	The	1	229.0	NA
58	5	21	F	swets	19	2	mistress	2	332.0	NA
58	5	21	F	swets	19	2	of	3	201.0	NA
58	5	21	F	swets	19	2	the	4	202.0	NA
58	5	21	F	swets	19	2	actor	5	215.0	NA
58	5	21	F	swets	19	2	who	6	235.0	NA
58	5	21	F	swets	19	2	hated	7	182.0	NA
58	5	21	F	swets	19	2	himself	8	233.0	NA
58	5	21	F	swets	19	2	for	9	250.0	NA
58	5	21	F	swets	19	2	lying	10	267.0	NA
58	5	21	F	swets	19	2	left	11	233.0	NA
58	5	21	F	swets	19	2	town	12	334.0	NA
58	5	21	F	swets	19	2	in	13	267.0	NA
58	5	21	F	swets	19	2	a	14	317.0	NA
58	5	21	F	swets	19	2	hurry.	15	300.0	NA
58	5	21	F	Question	19	2	NA	NA	2133.0	1
59	5	21	F	Filler	72	4	The	1	645.0	NA
59	5	21	F	Filler	72	4	secretaries	2	1534.0	NA
59	5	21	F	Filler	72	4	couldn't	3	266.0	NA
59	5	21	F	Filler	72	4	break	4	300.0	NA
59	5	21	F	Filler	72	4	away	5	334.0	NA
59	5	21	F	Filler	72	4	from	6	283.0	NA
59	5	21	F	Filler	72	4	their	7	300.0	NA
59	5	21	F	Filler	72	4	habit	8	234.0	NA
59	5	21	F	Filler	72	4	of	9	399.0	NA
59	5	21	F	Filler	72	4	coffee	10	251.0	NA
59	5	21	F	Filler	72	4	and	11	382.0	NA
59	5	21	F	Filler	72	4	cigarettes	12	335.0	NA
59	5	21	F	Filler	72	4	during	13	467.0	NA
59	5	21	F	Filler	72	4	their	14	301.0	NA
59	5	21	F	Filler	72	4	breaks.	15	299.0	NA
59	5	21	F	Question	72	4	NA	NA	2066.0	1
60	5	21	F	Filler	99	5	The	1	512.0	NA
60	5	21	F	Filler	99	5	daring	2	268.0	NA
60	5	21	F	Filler	99	5	photographer	3	266.0	NA
60	5	21	F	Filler	99	5	captured	4	432.0	NA
60	5	21	F	Filler	99	5	the	5	201.0	NA
60	5	21	F	Filler	99	5	image	6	216.0	NA
60	5	21	F	Filler	99	5	of	7	151.0	NA
60	5	21	F	Filler	99	5	the	8	201.0	NA
60	5	21	F	Filler	99	5	destruction	9	199.0	NA
60	5	21	F	Filler	99	5	as	10	267.0	NA
60	5	21	F	Filler	99	5	it	11	349.0	NA
60	5	21	F	Filler	99	5	devastated	12	234.0	NA
60	5	21	F	Filler	99	5	the	13	317.0	NA
60	5	21	F	Filler	99	5	village.	14	366.0	NA
60	5	21	F	Question	99	5	NA	NA	8953.0	1
61	5	21	F	Filler	87	5	The	1	911.0	NA
61	5	21	F	Filler	87	5	car	2	300.0	NA
61	5	21	F	Filler	87	5	chased	3	232.0	NA
61	5	21	F	Filler	87	5	the	4	201.0	NA
61	5	21	F	Filler	87	5	robber	5	234.0	NA
61	5	21	F	Filler	87	5	of	6	250.0	NA
61	5	21	F	Filler	87	5	the	7	232.0	NA
61	5	21	F	Filler	87	5	bank	8	269.0	NA
61	5	21	F	Filler	87	5	into	9	232.0	NA
61	5	21	F	Filler	87	5	a	10	251.0	NA
61	5	21	F	Filler	87	5	narrow	11	250.0	NA
61	5	21	F	Filler	87	5	alley.	12	250.0	NA
61	5	21	F	Question	87	5	NA	NA	1766.0	1
62	5	21	F	Filler	142	7	The	1	362.0	NA
62	5	21	F	Filler	142	7	cats	2	218.0	NA
62	5	21	F	Filler	142	7	and	3	184.0	NA
62	5	21	F	Filler	142	7	dogs	4	231.0	NA
62	5	21	F	Filler	142	7	glared	5	234.0	NA
62	5	21	F	Filler	142	7	at	6	168.0	NA
62	5	21	F	Filler	142	7	each	7	216.0	NA
62	5	21	F	Filler	142	7	other	8	234.0	NA
62	5	21	F	Filler	142	7	warily.	9	232.0	NA
62	5	21	F	Question	142	7	NA	NA	1767.0	1
63	5	21	F	swets	8	3	The	1	312.0	NA
63	5	21	F	swets	8	3	brother	2	183.0	NA
63	5	21	F	swets	8	3	of	3	233.0	NA
63	5	21	F	swets	8	3	the	4	134.0	NA
63	5	21	F	swets	8	3	seamstress	5	200.0	NA
63	5	21	F	swets	8	3	who	6	316.0	NA
63	5	21	F	swets	8	3	entertained	7	267.0	NA
63	5	21	F	swets	8	3	himself	8	234.0	NA
63	5	21	F	swets	8	3	most	9	267.0	NA
63	5	21	F	swets	8	3	evenings	10	300.0	NA
63	5	21	F	swets	8	3	was	11	351.0	NA
63	5	21	F	swets	8	3	reading	12	398.0	NA
63	5	21	F	swets	8	3	a	13	202.0	NA
63	5	21	F	swets	8	3	book.	14	333.0	NA
63	5	21	F	Question	8	3	NA	NA	1833.0	1
64	5	21	F	Filler	135	7	While	1	396.0	NA
64	5	21	F	Filler	135	7	Donna	2	266.0	NA
64	5	21	F	Filler	135	7	and	3	516.0	NA
64	5	21	F	Filler	135	7	Scott	4	867.0	NA
64	5	21	F	Filler	135	7	met	5	917.0	NA
64	5	21	F	Filler	135	7	their	6	216.0	NA
64	5	21	F	Filler	135	7	agent	7	200.0	NA
64	5	21	F	Filler	135	7	some	8	250.0	NA
64	5	21	F	Filler	135	7	friends	9	201.0	NA
64	5	21	F	Filler	135	7	called	10	266.0	NA
64	5	21	F	Filler	135	7	and	11	284.0	NA
64	5	21	F	Filler	135	7	left	12	250.0	NA
64	5	21	F	Filler	135	7	a	13	284.0	NA
64	5	21	F	Filler	135	7	message.	14	232.0	NA
64	5	21	F	Question	135	7	NA	NA	3100.0	1
65	5	21	F	Filler	53	4	The	1	62.0	NA
65	5	21	F	Filler	53	4	clay	2	383.0	NA
65	5	21	F	Filler	53	4	pot	3	282.0	NA
65	5	21	F	Filler	53	4	was	4	202.0	NA
65	5	21	F	Filler	53	4	full	5	265.0	NA
65	5	21	F	Filler	53	4	of	6	267.0	NA
65	5	21	F	Filler	53	4	gold	7	234.0	NA
65	5	21	F	Filler	53	4	coins	8	299.0	NA
65	5	21	F	Filler	53	4	and	9	351.0	NA
65	5	21	F	Filler	53	4	the	10	234.0	NA
65	5	21	F	Filler	53	4	thief	11	265.0	NA
65	5	21	F	Filler	53	4	knew	12	335.0	NA
65	5	21	F	Filler	53	4	he	13	234.0	NA
65	5	21	F	Filler	53	4	had	14	365.0	NA
65	5	21	F	Filler	53	4	finally	15	252.0	NA
65	5	21	F	Filler	53	4	hit	16	349.0	NA
65	5	21	F	Filler	53	4	the	17	251.0	NA
65	5	21	F	Filler	53	4	jackpot.	18	333.0	NA
65	5	21	F	Question	53	4	NA	NA	2934.0	1
66	5	21	F	Filler	88	5	The	1	495.0	NA
66	5	21	F	Filler	88	5	woman's	2	299.0	NA
66	5	21	F	Filler	88	5	posture	3	301.0	NA
66	5	21	F	Filler	88	5	began	4	333.0	NA
66	5	21	F	Filler	88	5	to	5	300.0	NA
66	5	21	F	Filler	88	5	go	6	285.0	NA
66	5	21	F	Filler	88	5	bad	7	234.0	NA
66	5	21	F	Filler	88	5	because	8	365.0	NA
66	5	21	F	Filler	88	5	of	9	318.0	NA
66	5	21	F	Filler	88	5	her	10	349.0	NA
66	5	21	F	Filler	88	5	constant	11	300.0	NA
66	5	21	F	Filler	88	5	slumping.	12	401.0	NA
66	5	21	F	Question	88	5	NA	NA	1932.0	1
67	5	21	F	swets	28	2	The	1	595.0	NA
67	5	21	F	swets	28	2	nephew	2	234.0	NA
67	5	21	F	swets	28	2	of	3	200.0	NA
67	5	21	F	swets	28	2	the	4	200.0	NA
67	5	21	F	swets	28	2	baroness	5	199.0	NA
67	5	21	F	swets	28	2	who	6	268.0	NA
67	5	21	F	swets	28	2	admired	7	433.0	NA
67	5	21	F	swets	28	2	herself	8	366.0	NA
67	5	21	F	swets	28	2	an	9	250.0	NA
67	5	21	F	swets	28	2	inordinate	10	301.0	NA
67	5	21	F	swets	28	2	amount	11	401.0	NA
67	5	21	F	swets	28	2	enjoyed	12	366.0	NA
67	5	21	F	swets	28	2	all	13	284.0	NA
67	5	21	F	swets	28	2	the	14	382.0	NA
67	5	21	F	swets	28	2	attention.	15	401.0	NA
67	5	21	F	Question	28	2	NA	NA	8319.0	0
68	5	21	F	Filler	128	7	While	1	760.0	NA
68	5	21	F	Filler	128	7	the	2	234.0	NA
68	5	21	F	Filler	128	7	man	3	300.0	NA
68	5	21	F	Filler	128	7	was	4	317.0	NA
68	5	21	F	Filler	128	7	walking	5	300.0	NA
68	5	21	F	Filler	128	7	the	6	333.0	NA
68	5	21	F	Filler	128	7	poodle	7	334.0	NA
68	5	21	F	Filler	128	7	barked	8	266.0	NA
68	5	21	F	Filler	128	7	loudly.	9	334.0	NA
68	5	21	F	Question	128	7	NA	NA	2767.0	0
69	5	21	F	Filler	85	5	The	1	1578.0	NA
69	5	21	F	Filler	85	5	college	2	234.0	NA
69	5	21	F	Filler	85	5	students	3	233.0	NA
69	5	21	F	Filler	85	5	were	4	334.0	NA
69	5	21	F	Filler	85	5	upset	5	333.0	NA
69	5	21	F	Filler	85	5	that	6	300.0	NA
69	5	21	F	Filler	85	5	they	7	300.0	NA
69	5	21	F	Filler	85	5	had	8	366.0	NA
69	5	21	F	Filler	85	5	an	9	319.0	NA
69	5	21	F	Filler	85	5	exam	10	365.0	NA
69	5	21	F	Filler	85	5	the	11	384.0	NA
69	5	21	F	Filler	85	5	next	12	333.0	NA
69	5	21	F	Filler	85	5	day.	13	335.0	NA
69	5	21	F	Question	85	5	NA	NA	2366.0	1
70	5	21	F	Filler	38	4	Despite	1	594.0	NA
70	5	21	F	Filler	38	4	the	2	218.0	NA
70	5	21	F	Filler	38	4	lack	3	334.0	NA
70	5	21	F	Filler	38	4	of	4	249.0	NA
70	5	21	F	Filler	38	4	publicity	5	233.0	NA
70	5	21	F	Filler	38	4	many	6	267.0	NA
70	5	21	F	Filler	38	4	people	7	233.0	NA
70	5	21	F	Filler	38	4	attended	8	267.0	NA
70	5	21	F	Filler	38	4	the	9	284.0	NA
70	5	21	F	Filler	38	4	lecture.	10	233.0	NA
70	5	21	F	Question	38	4	NA	NA	2335.0	1
71	5	21	F	swets	5	3	The	1	479.0	NA
71	5	21	F	swets	5	3	aunt	2	166.0	NA
71	5	21	F	swets	5	3	of	3	167.0	NA
71	5	21	F	swets	5	3	the	4	185.0	NA
71	5	21	F	swets	5	3	bishop	5	199.0	NA
71	5	21	F	swets	5	3	who	6	166.0	NA
71	5	21	F	swets	5	3	injured	7	135.0	NA
71	5	21	F	swets	5	3	herself	8	265.0	NA
71	5	21	F	swets	5	3	last	9	267.0	NA
71	5	21	F	swets	5	3	summer	10	235.0	NA
71	5	21	F	swets	5	3	was	11	248.0	NA
71	5	21	F	swets	5	3	concerned	12	202.0	NA
71	5	21	F	swets	5	3	about	13	300.0	NA
71	5	21	F	swets	5	3	the	14	281.0	NA
71	5	21	F	swets	5	3	infection.	15	335.0	NA
71	5	21	F	Question	5	3	NA	NA	3602.0	1
72	5	21	F	Filler	114	6	While	1	428.0	NA
72	5	21	F	Filler	114	6	the	2	217.0	NA
72	5	21	F	Filler	114	6	winners	3	200.0	NA
72	5	21	F	Filler	114	6	were	4	235.0	NA
72	5	21	F	Filler	114	6	kissing	5	266.0	NA
72	5	21	F	Filler	114	6	the	6	249.0	NA
72	5	21	F	Filler	114	6	crowd	7	251.0	NA
72	5	21	F	Filler	114	6	cheered	8	250.0	NA
72	5	21	F	Filler	114	6	wildly.	9	266.0	NA
72	5	21	F	Question	114	6	NA	NA	1534.0	1
73	5	21	F	Filler	89	5	Jim	1	628.0	NA
73	5	21	F	Filler	89	5	watered	2	234.0	NA
73	5	21	F	Filler	89	5	the	3	268.0	NA
73	5	21	F	Filler	89	5	tropical	4	266.0	NA
73	5	21	F	Filler	89	5	plants	5	266.0	NA
73	5	21	F	Filler	89	5	of	6	283.0	NA
73	5	21	F	Filler	89	5	his	7	268.0	NA
73	5	21	F	Filler	89	5	neighbor	8	499.0	NA
73	5	21	F	Filler	89	5	because	9	400.0	NA
73	5	21	F	Filler	89	5	she	10	233.0	NA
73	5	21	F	Filler	89	5	had	11	335.0	NA
73	5	21	F	Filler	89	5	gone	12	200.0	NA
73	5	21	F	Filler	89	5	out	13	233.0	NA
73	5	21	F	Filler	89	5	of	14	383.0	NA
73	5	21	F	Filler	89	5	town	15	218.0	NA
73	5	21	F	Filler	89	5	for	16	465.0	NA
73	5	21	F	Filler	89	5	a	17	285.0	NA
73	5	21	F	Filler	89	5	few	18	366.0	NA
73	5	21	F	Filler	89	5	days.	19	333.0	NA
73	5	21	F	Question	89	5	NA	NA	1668.0	1
74	5	21	F	Filler	137	7	When	1	428.0	NA
74	5	21	F	Filler	137	7	Leslie	2	267.0	NA
74	5	21	F	Filler	137	7	was	3	267.0	NA
74	5	21	F	Filler	137	7	sneezing	4	267.0	NA
74	5	21	F	Filler	137	7	her	5	217.0	NA
74	5	21	F	Filler	137	7	friends	6	266.0	NA
74	5	21	F	Filler	137	7	laughed	7	234.0	NA
74	5	21	F	Filler	137	7	at	8	200.0	NA
74	5	21	F	Filler	137	7	her.	9	266.0	NA
74	5	21	F	Question	137	7	NA	NA	2268.0	1
75	5	21	F	Filler	92	5	The	1	912.0	NA
75	5	21	F	Filler	92	5	personal	2	968.0	NA
75	5	21	F	Filler	92	5	trainer	3	199.0	NA
75	5	21	F	Filler	92	5	was	4	233.0	NA
75	5	21	F	Filler	92	5	popular	5	234.0	NA
75	5	21	F	Filler	92	5	among	6	233.0	NA
75	5	21	F	Filler	92	5	athletes	7	234.0	NA
75	5	21	F	Filler	92	5	after	8	367.0	NA
75	5	21	F	Filler	92	5	he	9	250.0	NA
75	5	21	F	Filler	92	5	helped	10	300.0	NA
75	5	21	F	Filler	92	5	the	11	283.0	NA
75	5	21	F	Filler	92	5	bodybuilder	12	233.0	NA
75	5	21	F	Filler	92	5	win	13	368.0	NA
75	5	21	F	Filler	92	5	the	14	349.0	NA
75	5	21	F	Filler	92	5	competition.	15	300.0	NA
75	5	21	F	Question	92	5	NA	NA	6420.0	1
76	5	21	F	swets	11	3	The	1	1679.0	NA
76	5	21	F	swets	11	3	mother	2	267.0	NA
76	5	21	F	swets	11	3	of	3	300.0	NA
76	5	21	F	swets	11	3	the	4	282.0	NA
76	5	21	F	swets	11	3	surgeon	5	268.0	NA
76	5	21	F	swets	11	3	who	6	350.0	NA
76	5	21	F	swets	11	3	made	7	300.0	NA
76	5	21	F	swets	11	3	a	8	217.0	NA
76	5	21	F	swets	11	3	fool	9	266.0	NA
76	5	21	F	swets	11	3	of	10	350.0	NA
76	5	21	F	swets	11	3	herself	11	234.0	NA
76	5	21	F	swets	11	3	at	12	300.0	NA
76	5	21	F	swets	11	3	the	13	234.0	NA
76	5	21	F	swets	11	3	party	14	267.0	NA
76	5	21	F	swets	11	3	was	15	300.0	NA
76	5	21	F	swets	11	3	greatly	16	266.0	NA
76	5	21	F	swets	11	3	embarrassed.	17	435.0	NA
76	5	21	F	Question	11	3	NA	NA	1765.0	1
77	5	21	F	Filler	60	4	The	1	1778.0	NA
77	5	21	F	Filler	60	4	newlyweds	2	301.0	NA
77	5	21	F	Filler	60	4	were	3	267.0	NA
77	5	21	F	Filler	60	4	nervous	4	266.0	NA
77	5	21	F	Filler	60	4	about	5	366.0	NA
77	5	21	F	Filler	60	4	their	6	200.0	NA
77	5	21	F	Filler	60	4	new	7	234.0	NA
77	5	21	F	Filler	60	4	life	8	333.0	NA
77	5	21	F	Filler	60	4	together.	9	235.0	NA
77	5	21	F	Question	60	4	NA	NA	1499.0	1
78	5	21	F	Filler	77	5	Outside	1	378.0	NA
78	5	21	F	Filler	77	5	the	2	300.0	NA
78	5	21	F	Filler	77	5	courthouse	3	234.0	NA
78	5	21	F	Filler	77	5	the	4	234.0	NA
78	5	21	F	Filler	77	5	committee	5	166.0	NA
78	5	21	F	Filler	77	5	awarded	6	234.0	NA
78	5	21	F	Filler	77	5	a	7	134.0	NA
78	5	21	F	Filler	77	5	lifetime	8	234.0	NA
78	5	21	F	Filler	77	5	achievement	9	199.0	NA
78	5	21	F	Filler	77	5	prize	10	234.0	NA
78	5	21	F	Filler	77	5	to	11	233.0	NA
78	5	21	F	Filler	77	5	the	12	250.0	NA
78	5	21	F	Filler	77	5	creator	13	267.0	NA
78	5	21	F	Filler	77	5	of	14	233.0	NA
78	5	21	F	Filler	77	5	the	15	383.0	NA
78	5	21	F	Filler	77	5	sculpture.	16	200.0	NA
78	5	21	F	Question	77	5	NA	NA	1866.0	1
79	5	21	F	Filler	140	7	The	1	762.0	NA
79	5	21	F	Filler	140	7	investigators	2	201.0	NA
79	5	21	F	Filler	140	7	asked	3	465.0	NA
79	5	21	F	Filler	140	7	which	4	235.0	NA
79	5	21	F	Filler	140	7	mansion	5	533.0	NA
79	5	21	F	Filler	140	7	the	6	250.0	NA
79	5	21	F	Filler	140	7	owner	7	301.0	NA
79	5	21	F	Filler	140	7	sold	8	816.0	NA
79	5	21	F	Filler	140	7	and	9	367.0	NA
79	5	21	F	Filler	140	7	didn't	10	533.0	NA
79	5	21	F	Filler	140	7	repair	11	867.0	NA
79	5	21	F	Filler	140	7	ten	12	367.0	NA
79	5	21	F	Filler	140	7	years	13	766.0	NA
79	5	21	F	Filler	140	7	ago.	14	335.0	NA
79	5	21	F	Question	140	7	NA	NA	3034.0	1
80	5	21	F	Filler	144	7	The	1	446.0	NA
80	5	21	F	Filler	144	7	apple	2	333.0	NA
80	5	21	F	Filler	144	7	and	3	167.0	NA
80	5	21	F	Filler	144	7	potato	4	168.0	NA
80	5	21	F	Filler	144	7	went	5	232.0	NA
80	5	21	F	Filler	144	7	rotten	6	467.0	NA
80	5	21	F	Filler	144	7	after	7	267.0	NA
80	5	21	F	Filler	144	7	a	8	184.0	NA
80	5	21	F	Filler	144	7	week.	9	266.0	NA
80	5	21	F	Question	144	7	NA	NA	465.0	0
81	5	21	F	swets	10	2	The	1	663.0	NA
81	5	21	F	swets	10	2	uncle	2	231.0	NA
81	5	21	F	swets	10	2	of	3	201.0	NA
81	5	21	F	swets	10	2	the	4	251.0	NA
81	5	21	F	swets	10	2	nun	5	232.0	NA
81	5	21	F	swets	10	2	who	6	168.0	NA
81	5	21	F	swets	10	2	lost	7	248.0	NA
81	5	21	F	swets	10	2	herself	8	234.0	NA
81	5	21	F	swets	10	2	in	9	318.0	NA
81	5	21	F	swets	10	2	thought	10	199.0	NA
81	5	21	F	swets	10	2	was	11	300.0	NA
81	5	21	F	swets	10	2	disturbed	12	301.0	NA
81	5	21	F	swets	10	2	by	13	433.0	NA
81	5	21	F	swets	10	2	the	14	234.0	NA
81	5	21	F	swets	10	2	noise.	15	233.0	NA
81	5	21	F	Question	10	2	NA	NA	2283.0	1
82	5	21	F	Filler	112	6	As	1	295.0	NA
82	5	21	F	Filler	112	6	the	2	200.0	NA
82	5	21	F	Filler	112	6	dog	3	200.0	NA
82	5	21	F	Filler	112	6	was	4	299.0	NA
82	5	21	F	Filler	112	6	calming	5	200.0	NA
82	5	21	F	Filler	112	6	down	6	233.0	NA
82	5	21	F	Filler	112	6	the	7	184.0	NA
82	5	21	F	Filler	112	6	puppy	8	265.0	NA
82	5	21	F	Filler	112	6	slept	9	201.0	NA
82	5	21	F	Filler	112	6	in	10	283.0	NA
82	5	21	F	Filler	112	6	the	11	267.0	NA
82	5	21	F	Filler	112	6	cage.	12	367.0	NA
82	5	21	F	Question	112	6	NA	NA	1700.0	1
83	5	21	F	swets	15	1	The	1	295.0	NA
83	5	21	F	swets	15	1	sister	2	200.0	NA
83	5	21	F	swets	15	1	of	3	167.0	NA
83	5	21	F	swets	15	1	the	4	215.0	NA
83	5	21	F	swets	15	1	beautician	5	201.0	NA
83	5	21	F	swets	15	1	who	6	201.0	NA
83	5	21	F	swets	15	1	cut	7	267.0	NA
83	5	21	F	swets	15	1	herself	8	233.0	NA
83	5	21	F	swets	15	1	on	9	234.0	NA
83	5	21	F	swets	15	1	the	10	265.0	NA
83	5	21	F	swets	15	1	broken	11	267.0	NA
83	5	21	F	swets	15	1	glass	12	200.0	NA
83	5	21	F	swets	15	1	phoned	13	266.0	NA
83	5	21	F	swets	15	1	for	14	301.0	NA
83	5	21	F	swets	15	1	a	15	300.0	NA
83	5	21	F	swets	15	1	doctor.	16	267.0	NA
83	5	21	F	Question	15	1	NA	NA	2117.0	0
84	5	21	F	Filler	50	4	The	1	428.0	NA
84	5	21	F	Filler	50	4	new	2	268.0	NA
84	5	21	F	Filler	50	4	language	3	167.0	NA
84	5	21	F	Filler	50	4	requirement	4	198.0	NA
84	5	21	F	Filler	50	4	made	5	167.0	NA
84	5	21	F	Filler	50	4	all	6	167.0	NA
84	5	21	F	Filler	50	4	the	7	218.0	NA
84	5	21	F	Filler	50	4	students	8	200.0	NA
84	5	21	F	Filler	50	4	say	9	201.0	NA
84	5	21	F	Filler	50	4	bad	10	166.0	NA
84	5	21	F	Filler	50	4	things	11	199.0	NA
84	5	21	F	Filler	50	4	about	12	200.0	NA
84	5	21	F	Filler	50	4	the	13	184.0	NA
84	5	21	F	Filler	50	4	dean	14	167.0	NA
84	5	21	F	Filler	50	4	of	15	201.0	NA
84	5	21	F	Filler	50	4	the	16	182.0	NA
84	5	21	F	Filler	50	4	college.	17	200.0	NA
84	5	21	F	Question	50	4	NA	NA	1717.0	1
85	5	21	F	Filler	97	5	The	1	362.0	NA
85	5	21	F	Filler	97	5	tall	2	200.0	NA
85	5	21	F	Filler	97	5	man	3	183.0	NA
85	5	21	F	Filler	97	5	laughed	4	199.0	NA
85	5	21	F	Filler	97	5	at	5	168.0	NA
85	5	21	F	Filler	97	5	the	6	183.0	NA
85	5	21	F	Filler	97	5	clumsy	7	199.0	NA
85	5	21	F	Filler	97	5	child	8	234.0	NA
85	5	21	F	Filler	97	5	who	9	234.0	NA
85	5	21	F	Filler	97	5	spilled	10	233.0	NA
85	5	21	F	Filler	97	5	the	11	199.0	NA
85	5	21	F	Filler	97	5	milk	12	269.0	NA
85	5	21	F	Filler	97	5	on	13	232.0	NA
85	5	21	F	Filler	97	5	himself.	14	267.0	NA
85	5	21	F	Question	97	5	NA	NA	2335.0	1
86	5	21	F	Filler	78	5	The	1	630.0	NA
86	5	21	F	Filler	78	5	customer	2	266.0	NA
86	5	21	F	Filler	78	5	complimented	3	267.0	NA
86	5	21	F	Filler	78	5	the	4	316.0	NA
86	5	21	F	Filler	78	5	store	5	218.0	NA
86	5	21	F	Filler	78	5	keeper	6	266.0	NA
86	5	21	F	Filler	78	5	with	7	199.0	NA
86	5	21	F	Filler	78	5	the	8	152.0	NA
86	5	21	F	Filler	78	5	new	9	200.0	NA
86	5	21	F	Filler	78	5	stock.	10	233.0	NA
86	5	21	F	Question	78	5	NA	NA	1750.0	1
87	5	21	F	Filler	103	5	The	1	477.0	NA
87	5	21	F	Filler	103	5	desperate	2	201.0	NA
87	5	21	F	Filler	103	5	thief	3	232.0	NA
87	5	21	F	Filler	103	5	ran	4	234.0	NA
87	5	21	F	Filler	103	5	over	5	167.0	NA
87	5	21	F	Filler	103	5	a	6	150.0	NA
87	5	21	F	Filler	103	5	child	7	267.0	NA
87	5	21	F	Filler	103	5	in	8	183.0	NA
87	5	21	F	Filler	103	5	an	9	234.0	NA
87	5	21	F	Filler	103	5	attempt	10	201.0	NA
87	5	21	F	Filler	103	5	to	11	217.0	NA
87	5	21	F	Filler	103	5	dodge	12	266.0	NA
87	5	21	F	Filler	103	5	the	13	500.0	NA
87	5	21	F	Filler	103	5	cops.	14	300.0	NA
87	5	21	F	Question	103	5	NA	NA	3268.0	0
88	5	21	F	swets	30	1	The	1	495.0	NA
88	5	21	F	swets	30	1	maid	2	199.0	NA
88	5	21	F	swets	30	1	of	3	234.0	NA
88	5	21	F	swets	30	1	the	4	133.0	NA
88	5	21	F	swets	30	1	baroness	5	434.0	NA
88	5	21	F	swets	30	1	who	6	582.0	NA
88	5	21	F	swets	30	1	prepared	7	233.0	NA
88	5	21	F	swets	30	1	herself	8	201.0	NA
88	5	21	F	swets	30	1	very	9	202.0	NA
88	5	21	F	swets	30	1	thoroughly	10	200.0	NA
88	5	21	F	swets	30	1	came	11	332.0	NA
88	5	21	F	swets	30	1	from	12	366.0	NA
88	5	21	F	swets	30	1	the	13	167.0	NA
88	5	21	F	swets	30	1	south.	14	267.0	NA
88	5	21	F	Question	30	1	NA	NA	5535.0	0
89	5	21	F	Filler	94	5	After	1	460.0	NA
89	5	21	F	Filler	94	5	months	2	134.0	NA
89	5	21	F	Filler	94	5	of	3	168.0	NA
89	5	21	F	Filler	94	5	preparation	4	133.0	NA
89	5	21	F	Filler	94	5	the	5	150.0	NA
89	5	21	F	Filler	94	5	ballerina	6	200.0	NA
89	5	21	F	Filler	94	5	was	7	199.0	NA
89	5	21	F	Filler	94	5	getting	8	167.0	NA
89	5	21	F	Filler	94	5	ready	9	234.0	NA
89	5	21	F	Filler	94	5	for	10	168.0	NA
89	5	21	F	Filler	94	5	opening	11	233.0	NA
89	5	21	F	Filler	94	5	night.	12	231.0	NA
89	5	21	F	Question	94	5	NA	NA	5452.0	0
90	5	21	F	Filler	39	4	The	1	296.0	NA
90	5	21	F	Filler	39	4	overweight	2	166.0	NA
90	5	21	F	Filler	39	4	aunt	3	167.0	NA
90	5	21	F	Filler	39	4	decided	4	135.0	NA
90	5	21	F	Filler	39	4	to	5	183.0	NA
90	5	21	F	Filler	39	4	make	6	167.0	NA
90	5	21	F	Filler	39	4	cookies	7	166.0	NA
90	5	21	F	Filler	39	4	and	8	166.0	NA
90	5	21	F	Filler	39	4	cupcakes	9	200.0	NA
90	5	21	F	Filler	39	4	for	10	267.0	NA
90	5	21	F	Filler	39	4	the	11	218.0	NA
90	5	21	F	Filler	39	4	dinner	12	198.0	NA
90	5	21	F	Filler	39	4	party.	13	168.0	NA
90	5	21	F	Question	39	4	NA	NA	1282.0	0
91	5	21	F	Filler	95	5	The	1	678.0	NA
91	5	21	F	Filler	95	5	receptionist	2	235.0	NA
91	5	21	F	Filler	95	5	of	3	233.0	NA
91	5	21	F	Filler	95	5	the	4	216.0	NA
91	5	21	F	Filler	95	5	company	5	200.0	NA
91	5	21	F	Filler	95	5	went	6	167.0	NA
91	5	21	F	Filler	95	5	home	7	167.0	NA
91	5	21	F	Filler	95	5	sick	8	100.0	NA
91	5	21	F	Filler	95	5	before	9	233.0	NA
91	5	21	F	Filler	95	5	moving	10	168.0	NA
91	5	21	F	Filler	95	5	across	11	166.0	NA
91	5	21	F	Filler	95	5	town.	12	201.0	NA
91	5	21	F	Question	95	5	NA	NA	2733.0	0
92	5	21	F	swets	24	1	The	1	1146.0	NA
92	5	21	F	swets	24	1	assistant	2	201.0	NA
92	5	21	F	swets	24	1	of	3	200.0	NA
92	5	21	F	swets	24	1	the	4	150.0	NA
92	5	21	F	swets	24	1	chaplain	5	199.0	NA
92	5	21	F	swets	24	1	who	6	166.0	NA
92	5	21	F	swets	24	1	drew	7	201.0	NA
92	5	21	F	swets	24	1	attention	8	199.0	NA
92	5	21	F	swets	24	1	to	9	217.0	NA
92	5	21	F	swets	24	1	himself	10	166.0	NA
92	5	21	F	swets	24	1	all	11	167.0	NA
92	5	21	F	swets	24	1	the	12	216.0	NA
92	5	21	F	swets	24	1	time	13	202.0	NA
92	5	21	F	swets	24	1	hated	14	232.0	NA
92	5	21	F	swets	24	1	small	15	168.0	NA
92	5	21	F	swets	24	1	children.	16	167.0	NA
92	5	21	F	Question	24	1	NA	NA	2749.0	0
93	5	21	F	Filler	133	7	While	1	428.0	NA
93	5	21	F	Filler	133	7	the	2	184.0	NA
93	5	21	F	Filler	133	7	lawyers	3	199.0	NA
93	5	21	F	Filler	133	7	fought	4	101.0	NA
93	5	21	F	Filler	133	7	the	5	134.0	NA
93	5	21	F	Filler	133	7	ruling	6	200.0	NA
93	5	21	F	Filler	133	7	the	7	215.0	NA
93	5	21	F	Filler	133	7	judge	8	334.0	NA
93	5	21	F	Filler	133	7	announced	9	200.0	NA
93	5	21	F	Filler	133	7	the	10	116.0	NA
93	5	21	F	Filler	133	7	decision.	11	167.0	NA
93	5	21	F	Question	133	7	NA	NA	2252.0	1
94	5	21	F	swets	23	3	The	1	95.0	NA
94	5	21	F	swets	23	3	father	2	299.0	NA
94	5	21	F	swets	23	3	of	3	234.0	NA
94	5	21	F	swets	23	3	the	4	267.0	NA
94	5	21	F	swets	23	3	ballerina	5	199.0	NA
94	5	21	F	swets	23	3	who	6	201.0	NA
94	5	21	F	swets	23	3	found	7	266.0	NA
94	5	21	F	swets	23	3	himself	8	235.0	NA
94	5	21	F	swets	23	3	in	9	249.0	NA
94	5	21	F	swets	23	3	a	10	266.0	NA
94	5	21	F	swets	23	3	lot	11	250.0	NA
94	5	21	F	swets	23	3	of	12	235.0	NA
94	5	21	F	swets	23	3	trouble	13	332.0	NA
94	5	21	F	swets	23	3	phoned	14	334.0	NA
94	5	21	F	swets	23	3	the	15	300.0	NA
94	5	21	F	swets	23	3	police.	16	233.0	NA
94	5	21	F	Question	23	3	NA	NA	3834.0	1
95	5	21	F	Filler	63	4	The	1	327.0	NA
95	5	21	F	Filler	63	4	bride	2	301.0	NA
95	5	21	F	Filler	63	4	was	3	301.0	NA
95	5	21	F	Filler	63	4	devastated	4	232.0	NA
95	5	21	F	Filler	63	4	to	5	317.0	NA
95	5	21	F	Filler	63	4	lose	6	249.0	NA
95	5	21	F	Filler	63	4	her	7	236.0	NA
95	5	21	F	Filler	63	4	gold	8	299.0	NA
95	5	21	F	Filler	63	4	ring	9	300.0	NA
95	5	21	F	Filler	63	4	with	10	335.0	NA
95	5	21	F	Filler	63	4	a	11	299.0	NA
95	5	21	F	Filler	63	4	gleaming	12	334.0	NA
95	5	21	F	Filler	63	4	diamond	13	267.0	NA
95	5	21	F	Filler	63	4	in	14	434.0	NA
95	5	21	F	Filler	63	4	the	15	282.0	NA
95	5	21	F	Filler	63	4	middle.	16	268.0	NA
95	5	21	F	Question	63	4	NA	NA	2632.0	1
96	5	21	F	Filler	81	5	The	1	495.0	NA
96	5	21	F	Filler	81	5	stubborn	2	232.0	NA
96	5	21	F	Filler	81	5	old	3	318.0	NA
96	5	21	F	Filler	81	5	man	4	250.0	NA
96	5	21	F	Filler	81	5	criticized	5	167.0	NA
96	5	21	F	Filler	81	5	everything	6	201.0	NA
96	5	21	F	Filler	81	5	that	7	200.0	NA
96	5	21	F	Filler	81	5	the	8	166.0	NA
96	5	21	F	Filler	81	5	young	9	268.0	NA
96	5	21	F	Filler	81	5	student	10	167.0	NA
96	5	21	F	Filler	81	5	did.	11	266.0	NA
96	5	21	F	Question	81	5	NA	NA	3283.0	1
97	5	21	F	Filler	141	7	The	1	394.0	NA
97	5	21	F	Filler	141	7	nurse	2	136.0	NA
97	5	21	F	Filler	141	7	and	3	131.0	NA
97	5	21	F	Filler	141	7	custodian	4	134.0	NA
97	5	21	F	Filler	141	7	chatted	5	134.0	NA
97	5	21	F	Filler	141	7	during	6	133.0	NA
97	5	21	F	Filler	141	7	their	7	199.0	NA
97	5	21	F	Filler	141	7	break.	8	101.0	NA
97	5	21	F	Question	141	7	NA	NA	2651.0	1
98	5	21	F	swets	32	3	The	1	1461.0	NA
98	5	21	F	swets	32	3	nephew	2	466.0	NA
98	5	21	F	swets	32	3	of	3	135.0	NA
98	5	21	F	swets	32	3	the	4	184.0	NA
98	5	21	F	swets	32	3	duchess	5	132.0	NA
98	5	21	F	swets	32	3	who	6	434.0	NA
98	5	21	F	swets	32	3	looked	7	133.0	NA
98	5	21	F	swets	32	3	at	8	167.0	NA
98	5	21	F	swets	32	3	himself	9	199.0	NA
98	5	21	F	swets	32	3	in	10	252.0	NA
98	5	21	F	swets	32	3	the	11	183.0	NA
98	5	21	F	swets	32	3	mirror	12	199.0	NA
98	5	21	F	swets	32	3	wore	13	401.0	NA
98	5	21	F	swets	32	3	a	14	199.0	NA
98	5	21	F	swets	32	3	blue	15	201.0	NA
98	5	21	F	swets	32	3	shirt.	16	400.0	NA
98	5	21	F	Question	32	3	NA	NA	3933.0	1
99	5	21	F	Filler	76	5	After	1	494.0	NA
99	5	21	F	Filler	76	5	fifty	2	202.0	NA
99	5	21	F	Filler	76	5	years	3	167.0	NA
99	5	21	F	Filler	76	5	of	4	166.0	NA
99	5	21	F	Filler	76	5	marriage	5	134.0	NA
99	5	21	F	Filler	76	5	the	6	133.0	NA
99	5	21	F	Filler	76	5	old	7	166.0	NA
99	5	21	F	Filler	76	5	couple	8	116.0	NA
99	5	21	F	Filler	76	5	still	9	134.0	NA
99	5	21	F	Filler	76	5	felt	10	134.0	NA
99	5	21	F	Filler	76	5	the	11	150.0	NA
99	5	21	F	Filler	76	5	same	12	132.0	NA
99	5	21	F	Filler	76	5	about	13	133.0	NA
99	5	21	F	Filler	76	5	each	14	168.0	NA
99	5	21	F	Filler	76	5	other	15	151.0	NA
99	5	21	F	Filler	76	5	as	16	133.0	NA
99	5	21	F	Filler	76	5	they	17	100.0	NA
99	5	21	F	Filler	76	5	had	18	200.0	NA
99	5	21	F	Filler	76	5	on	19	166.0	NA
99	5	21	F	Filler	76	5	their	20	135.0	NA
99	5	21	F	Filler	76	5	wedding	21	166.0	NA
99	5	21	F	Filler	76	5	day.	22	334.0	NA
99	5	21	F	Question	76	5	NA	NA	2250.0	1
100	5	21	F	swets	3	1	The	1	544.0	NA
100	5	21	F	swets	3	1	partner	2	235.0	NA
100	5	21	F	swets	3	1	of	3	234.0	NA
100	5	21	F	swets	3	1	the	4	231.0	NA
100	5	21	F	swets	3	1	salesman	5	202.0	NA
100	5	21	F	swets	3	1	who	6	300.0	NA
100	5	21	F	swets	3	1	amused	7	198.0	NA
100	5	21	F	swets	3	1	himself	8	367.0	NA
100	5	21	F	swets	3	1	quite	9	285.0	NA
100	5	21	F	swets	3	1	a	10	366.0	NA
100	5	21	F	swets	3	1	bit	11	200.0	NA
100	5	21	F	swets	3	1	was	12	267.0	NA
100	5	21	F	swets	3	1	writing	13	301.0	NA
100	5	21	F	swets	3	1	a	14	315.0	NA
100	5	21	F	swets	3	1	letter	15	235.0	NA
100	5	21	F	swets	3	1	to	16	284.0	NA
100	5	21	F	swets	3	1	the	17	232.0	NA
100	5	21	F	swets	3	1	editor.	18	301.0	NA
100	5	21	F	Question	3	1	NA	NA	3801.0	1
101	5	21	F	Filler	110	6	While	1	997.0	NA
101	5	21	F	Filler	110	6	the	2	216.0	NA
101	5	21	F	Filler	110	6	lawyer	3	165.0	NA
101	5	21	F	Filler	110	6	was	4	200.0	NA
101	5	21	F	Filler	110	6	reading	5	267.0	NA
101	5	21	F	Filler	110	6	the	6	169.0	NA
101	5	21	F	Filler	110	6	will	7	198.0	NA
101	5	21	F	Filler	110	6	the	8	183.0	NA
101	5	21	F	Filler	110	6	contract	9	235.0	NA
101	5	21	F	Filler	110	6	remained	10	233.0	NA
101	5	21	F	Filler	110	6	on	11	232.0	NA
101	5	21	F	Filler	110	6	the	12	234.0	NA
101	5	21	F	Filler	110	6	desk.	13	234.0	NA
101	5	21	F	Question	110	6	NA	NA	1184.0	1
102	5	21	F	swets	6	1	The	1	311.0	NA
102	5	21	F	swets	6	1	brother	2	433.0	NA
102	5	21	F	swets	6	1	of	3	167.0	NA
102	5	21	F	swets	6	1	the	4	149.0	NA
102	5	21	F	swets	6	1	mayor	5	168.0	NA
102	5	21	F	swets	6	1	who	6	168.0	NA
102	5	21	F	swets	6	1	complimented	7	166.0	NA
102	5	21	F	swets	6	1	himself	8	199.0	NA
102	5	21	F	swets	6	1	constantly	9	168.0	NA
102	5	21	F	swets	6	1	was	10	134.0	NA
102	5	21	F	swets	6	1	bothered	11	200.0	NA
102	5	21	F	swets	6	1	by	12	333.0	NA
102	5	21	F	swets	6	1	the	13	216.0	NA
102	5	21	F	swets	6	1	reporter.	14	334.0	NA
102	5	21	F	Question	6	1	NA	NA	3035.0	1
103	5	21	F	Filler	74	5	My	1	461.0	NA
103	5	21	F	Filler	74	5	former	2	201.0	NA
103	5	21	F	Filler	74	5	girlfriend	3	200.0	NA
103	5	21	F	Filler	74	5	criticized	4	266.0	NA
103	5	21	F	Filler	74	5	the	5	234.0	NA
103	5	21	F	Filler	74	5	author's	6	300.0	NA
103	5	21	F	Filler	74	5	agent	7	267.0	NA
103	5	21	F	Filler	74	5	because	8	234.0	NA
103	5	21	F	Filler	74	5	he	9	283.0	NA
103	5	21	F	Filler	74	5	had	10	300.0	NA
103	5	21	F	Filler	74	5	failed	11	268.0	NA
103	5	21	F	Filler	74	5	to	12	265.0	NA
103	5	21	F	Filler	74	5	meet	13	234.0	NA
103	5	21	F	Filler	74	5	a	14	217.0	NA
103	5	21	F	Filler	74	5	deadline.	15	232.0	NA
103	5	21	F	Question	74	5	NA	NA	1750.0	1
104	5	21	F	Filler	111	6	While	1	528.0	NA
104	5	21	F	Filler	111	6	the	2	252.0	NA
104	5	21	F	Filler	111	6	clown	3	266.0	NA
104	5	21	F	Filler	111	6	juggled	4	299.0	NA
104	5	21	F	Filler	111	6	the	5	251.0	NA
104	5	21	F	Filler	111	6	balls	6	265.0	NA
104	5	21	F	Filler	111	6	fell	7	269.0	NA
104	5	21	F	Filler	111	6	to	8	333.0	NA
104	5	21	F	Filler	111	6	the	9	282.0	NA
104	5	21	F	Filler	111	6	ground.	10	367.0	NA
104	5	21	F	Question	111	6	NA	NA	2534.0	0
105	5	21	F	Filler	127	7	While	1	495.0	NA
105	5	21	F	Filler	127	7	Linda	2	233.0	NA
105	5	21	F	Filler	127	7	wrote	3	217.0	NA
105	5	21	F	Filler	127	7	the	4	201.0	NA
105	5	21	F	Filler	127	7	letter	5	217.0	NA
105	5	21	F	Filler	127	7	arrived	6	199.0	NA
105	5	21	F	Filler	127	7	from	7	235.0	NA
105	5	21	F	Filler	127	7	Chicago.	8	234.0	NA
105	5	21	F	Question	127	7	NA	NA	1765.0	1
106	5	21	F	Filler	122	6	They	1	1462.0	NA
106	5	21	F	Filler	122	6	don't	2	269.0	NA
106	5	21	F	Filler	122	6	know	3	232.0	NA
106	5	21	F	Filler	122	6	which	4	201.0	NA
106	5	21	F	Filler	122	6	family	5	199.0	NA
106	5	21	F	Filler	122	6	the	6	683.0	NA
106	5	21	F	Filler	122	6	hijackers	7	234.0	NA
106	5	21	F	Filler	122	6	held	8	333.0	NA
106	5	21	F	Filler	122	6	hostage	9	400.0	NA
106	5	21	F	Filler	122	6	but	10	399.0	NA
106	5	21	F	Filler	122	6	didn't	11	269.0	NA
106	5	21	F	Filler	122	6	hurt	12	332.0	NA
106	5	21	F	Filler	122	6	the	13	267.0	NA
106	5	21	F	Filler	122	6	children	14	302.0	NA
106	5	21	F	Filler	122	6	of	15	500.0	NA
106	5	21	F	Filler	122	6	too	16	399.0	NA
106	5	21	F	Filler	122	6	much.	17	366.0	NA
106	5	21	F	Question	122	6	NA	NA	14205.0	1
107	5	21	F	swets	18	1	The	1	428.0	NA
107	5	21	F	swets	18	1	nephew	2	200.0	NA
107	5	21	F	swets	18	1	of	3	168.0	NA
107	5	21	F	swets	18	1	the	4	151.0	NA
107	5	21	F	swets	18	1	fisherman	5	267.0	NA
107	5	21	F	swets	18	1	who	6	249.0	NA
107	5	21	F	swets	18	1	drowned	7	267.0	NA
107	5	21	F	swets	18	1	himself	8	234.0	NA
107	5	21	F	swets	18	1	in	9	249.0	NA
107	5	21	F	swets	18	1	the	10	217.0	NA
107	5	21	F	swets	18	1	ocean	11	234.0	NA
107	5	21	F	swets	18	1	didn't	12	265.0	NA
107	5	21	F	swets	18	1	know	13	233.0	NA
107	5	21	F	swets	18	1	about	14	234.0	NA
107	5	21	F	swets	18	1	the	15	251.0	NA
107	5	21	F	swets	18	1	tricky	16	367.0	NA
107	5	21	F	swets	18	1	current.	17	266.0	NA
107	5	21	F	Question	18	1	NA	NA	3702.0	0
108	5	21	F	Filler	120	6	Sarah	1	1428.0	NA
108	5	21	F	Filler	120	6	won't	2	168.0	NA
108	5	21	F	Filler	120	6	reveal	3	266.0	NA
108	5	21	F	Filler	120	6	which	4	167.0	NA
108	5	21	F	Filler	120	6	race	5	201.0	NA
108	5	21	F	Filler	120	6	she	6	317.0	NA
108	5	21	F	Filler	120	6	won	7	265.0	NA
108	5	21	F	Filler	120	6	without	8	267.0	NA
108	5	21	F	Filler	120	6	entering	9	333.0	NA
108	5	21	F	Filler	120	6	the	10	417.0	NA
108	5	21	F	Filler	120	6	competition	11	235.0	NA
108	5	21	F	Filler	120	6	for	12	366.0	NA
108	5	21	F	Filler	120	6	officially.	13	233.0	NA
108	5	21	F	Question	120	6	NA	NA	3317.0	1
109	5	21	F	Filler	91	5	The	1	579.0	NA
109	5	21	F	Filler	91	5	workman	2	200.0	NA
109	5	21	F	Filler	91	5	dropped	3	233.0	NA
109	5	21	F	Filler	91	5	the	4	216.0	NA
109	5	21	F	Filler	91	5	assistant	5	200.0	NA
109	5	21	F	Filler	91	5	who	6	185.0	NA
109	5	21	F	Filler	91	5	complained	7	266.0	NA
109	5	21	F	Filler	91	5	bitterly	8	199.0	NA
109	5	21	F	Filler	91	5	onto	9	200.0	NA
109	5	21	F	Filler	91	5	a	10	217.0	NA
109	5	21	F	Filler	91	5	lower	11	282.0	NA
109	5	21	F	Filler	91	5	floor.	12	302.0	NA
109	5	21	F	Question	91	5	NA	NA	2384.0	1
110	5	21	F	Filler	93	5	The	1	428.0	NA
110	5	21	F	Filler	93	5	new	2	299.0	NA
110	5	21	F	Filler	93	5	book	3	267.0	NA
110	5	21	F	Filler	93	5	replaced	4	233.0	NA
110	5	21	F	Filler	93	5	the	5	167.0	NA
110	5	21	F	Filler	93	5	work	6	267.0	NA
110	5	21	F	Filler	93	5	of	7	268.0	NA
110	5	21	F	Filler	93	5	the	8	348.0	NA
110	5	21	F	Filler	93	5	leaders	9	335.0	NA
110	5	21	F	Filler	93	5	in	10	433.0	NA
110	5	21	F	Filler	93	5	the	11	384.0	NA
110	5	21	F	Filler	93	5	field	12	333.0	NA
110	5	21	F	Filler	93	5	of	13	533.0	NA
110	5	21	F	Filler	93	5	physical	14	234.0	NA
110	5	21	F	Filler	93	5	chemistry.	15	300.0	NA
110	5	21	F	Question	93	5	NA	NA	1866.0	1
111	5	21	F	swets	25	2	The	1	479.0	NA
111	5	21	F	swets	25	2	grandfather	2	198.0	NA
111	5	21	F	swets	25	2	of	3	201.0	NA
111	5	21	F	swets	25	2	the	4	285.0	NA
111	5	21	F	swets	25	2	stewardess	5	233.0	NA
111	5	21	F	swets	25	2	who	6	216.0	NA
111	5	21	F	swets	25	2	treated	7	266.0	NA
111	5	21	F	swets	25	2	herself	8	235.0	NA
111	5	21	F	swets	25	2	to	9	216.0	NA
111	5	21	F	swets	25	2	an	10	201.0	NA
111	5	21	F	swets	25	2	ice-cream	11	232.0	NA
111	5	21	F	swets	25	2	cone	12	333.0	NA
111	5	21	F	swets	25	2	was	13	234.0	NA
111	5	21	F	swets	25	2	waiting	14	233.0	NA
111	5	21	F	swets	25	2	at	15	234.0	NA
111	5	21	F	swets	25	2	home.	16	233.0	NA
111	5	21	F	Question	25	2	NA	NA	7752.0	0
112	5	21	F	Filler	49	4	The	1	628.0	NA
112	5	21	F	Filler	49	4	construction	2	265.0	NA
112	5	21	F	Filler	49	4	worker	3	235.0	NA
112	5	21	F	Filler	49	4	sued	4	68.0	NA
112	5	21	F	Filler	49	4	the	5	116.0	NA
112	5	21	F	Filler	49	4	son	6	167.0	NA
112	5	21	F	Filler	49	4	of	7	500.0	NA
112	5	21	F	Filler	49	4	that	8	301.0	NA
112	5	21	F	Filler	49	4	greedy	9	533.0	NA
112	5	21	F	Filler	49	4	banker.	10	300.0	NA
112	5	21	F	Question	49	4	NA	NA	815.0	0
113	5	21	F	Filler	102	5	The	1	1813.0	NA
113	5	21	F	Filler	102	5	old	2	749.0	NA
113	5	21	F	Filler	102	5	man	3	466.0	NA
113	5	21	F	Filler	102	5	appeared	4	402.0	NA
113	5	21	F	Filler	102	5	to	5	398.0	NA
113	5	21	F	Filler	102	5	be	6	367.0	NA
113	5	21	F	Filler	102	5	upset	7	334.0	NA
113	5	21	F	Filler	102	5	by	8	302.0	NA
113	5	21	F	Filler	102	5	the	9	400.0	NA
113	5	21	F	Filler	102	5	teenager's	10	366.0	NA
113	5	21	F	Filler	102	5	ignorant	11	433.0	NA
113	5	21	F	Filler	102	5	remark.	12	433.0	NA
113	5	21	F	Question	102	5	NA	NA	635.0	0
114	5	21	F	Filler	61	4	The	1	495.0	NA
114	5	21	F	Filler	61	4	lemon	2	1468.0	NA
114	5	21	F	Filler	61	4	squirted	3	599.0	NA
114	5	21	F	Filler	61	4	into	4	467.0	NA
114	5	21	F	Filler	61	4	the	5	1050.0	NA
114	5	21	F	Filler	61	4	debutante's	6	601.0	NA
114	5	21	F	Filler	61	4	eye	7	634.0	NA
114	5	21	F	Filler	61	4	as	8	765.0	NA
114	5	21	F	Filler	61	4	she	9	685.0	NA
114	5	21	F	Filler	61	4	tried	10	966.0	NA
114	5	21	F	Filler	61	4	to	11	499.0	NA
114	5	21	F	Filler	61	4	impress	12	435.0	NA
114	5	21	F	Filler	61	4	her	13	401.0	NA
114	5	21	F	Filler	61	4	mother's	14	400.0	NA
114	5	21	F	Filler	61	4	society	15	332.0	NA
114	5	21	F	Filler	61	4	friends.	16	367.0	NA
114	5	21	F	Question	61	4	NA	NA	1000.0	0
115	5	21	F	Filler	123	6	The	1	413.0	NA
115	5	21	F	Filler	123	6	student	2	232.0	NA
115	5	21	F	Filler	123	6	and	3	269.0	NA
115	5	21	F	Filler	123	6	professor	4	398.0	NA
115	5	21	F	Filler	123	6	went	5	401.0	NA
115	5	21	F	Filler	123	6	for	6	434.0	NA
115	5	21	F	Filler	123	6	a	7	384.0	NA
115	5	21	F	Filler	123	6	walk	8	432.0	NA
115	5	21	F	Filler	123	6	last	9	401.0	NA
115	5	21	F	Filler	123	6	Tuesday.	10	916.0	NA
115	5	21	F	Question	123	6	NA	NA	850.0	1
116	5	21	F	swets	13	2	The	1	1094.0	NA
116	5	21	F	swets	13	2	great-aunt	2	300.0	NA
116	5	21	F	swets	13	2	of	3	268.0	NA
116	5	21	F	swets	13	2	the	4	300.0	NA
116	5	21	F	swets	13	2	policeman	5	366.0	NA
116	5	21	F	swets	13	2	who	6	352.0	NA
116	5	21	F	swets	13	2	treated	7	333.0	NA
116	5	21	F	swets	13	2	himself	8	267.0	NA
116	5	21	F	swets	13	2	after	9	300.0	NA
116	5	21	F	swets	13	2	the	10	299.0	NA
116	5	21	F	swets	13	2	accident	11	334.0	NA
116	5	21	F	swets	13	2	was	12	367.0	NA
116	5	21	F	swets	13	2	watching	13	299.0	NA
116	5	21	F	swets	13	2	the	14	333.0	NA
116	5	21	F	swets	13	2	news.	15	367.0	NA
116	5	21	F	Question	13	2	NA	NA	500.0	1
117	5	21	F	Filler	54	4	The	1	545.0	NA
117	5	21	F	Filler	54	4	video	2	501.0	NA
117	5	21	F	Filler	54	4	screen	3	366.0	NA
117	5	21	F	Filler	54	4	of	4	300.0	NA
117	5	21	F	Filler	54	4	the	5	267.0	NA
117	5	21	F	Filler	54	4	monitor	6	300.0	NA
117	5	21	F	Filler	54	4	made	7	334.0	NA
117	5	21	F	Filler	54	4	strange	8	299.0	NA
117	5	21	F	Filler	54	4	noises	9	334.0	NA
117	5	21	F	Filler	54	4	and	10	301.0	NA
117	5	21	F	Filler	54	4	started	11	300.0	NA
117	5	21	F	Filler	54	4	emitting	12	332.0	NA
117	5	21	F	Filler	54	4	strange	13	300.0	NA
117	5	21	F	Filler	54	4	flashes.	14	367.0	NA
117	5	21	F	Question	54	4	NA	NA	2100.0	1
118	5	21	F	swets	1	2	The	1	545.0	NA
118	5	21	F	swets	1	2	brother	2	367.0	NA
118	5	21	F	swets	1	2	of	3	400.0	NA
118	5	21	F	swets	1	2	the	4	384.0	NA
118	5	21	F	swets	1	2	actress	5	299.0	NA
118	5	21	F	swets	1	2	who	6	317.0	NA
118	5	21	F	swets	1	2	called	7	300.0	NA
118	5	21	F	swets	1	2	attention	8	333.0	NA
118	5	21	F	swets	1	2	to	9	269.0	NA
118	5	21	F	swets	1	2	herself	10	331.0	NA
118	5	21	F	swets	1	2	on	11	235.0	NA
118	5	21	F	swets	1	2	the	12	350.0	NA
118	5	21	F	swets	1	2	balcony	13	300.0	NA
118	5	21	F	swets	1	2	was	14	365.0	NA
118	5	21	F	swets	1	2	under	15	236.0	NA
118	5	21	F	swets	1	2	investigation.	16	265.0	NA
118	5	21	F	Question	1	2	NA	NA	2501.0	0
119	5	21	F	Filler	105	5	The	1	1379.0	NA
119	5	21	F	Filler	105	5	actors	2	234.0	NA
119	5	21	F	Filler	105	5	rehearsed	3	233.0	NA
119	5	21	F	Filler	105	5	the	4	216.0	NA
119	5	21	F	Filler	105	5	play	5	266.0	NA
119	5	21	F	Filler	105	5	so	6	268.0	NA
119	5	21	F	Filler	105	5	much	7	267.0	NA
119	5	21	F	Filler	105	5	that	8	267.0	NA
119	5	21	F	Filler	105	5	they	9	266.0	NA
119	5	21	F	Filler	105	5	became	10	233.0	NA
119	5	21	F	Filler	105	5	bored	11	267.0	NA
119	5	21	F	Filler	105	5	with	12	233.0	NA
119	5	21	F	Filler	105	5	it.	13	169.0	NA
119	5	21	F	Question	105	5	NA	NA	2382.0	1
120	5	21	F	swets	35	3	The	1	510.0	NA
120	5	21	F	swets	35	3	landlady	2	234.0	NA
120	5	21	F	swets	35	3	of	3	167.0	NA
120	5	21	F	swets	35	3	the	4	167.0	NA
120	5	21	F	swets	35	3	businessman	5	200.0	NA
120	5	21	F	swets	35	3	who	6	250.0	NA
120	5	21	F	swets	35	3	had	7	233.0	NA
120	5	21	F	swets	35	3	locked	8	233.0	NA
120	5	21	F	swets	35	3	herself	9	201.0	NA
120	5	21	F	swets	35	3	in	10	201.0	NA
120	5	21	F	swets	35	3	the	11	217.0	NA
120	5	21	F	swets	35	3	office	12	167.0	NA
120	5	21	F	swets	35	3	received	13	133.0	NA
120	5	21	F	swets	35	3	a	14	100.0	NA
120	5	21	F	swets	35	3	phone	15	267.0	NA
120	5	21	F	swets	35	3	call.	16	299.0	NA
120	5	21	F	Question	35	3	NA	NA	1400.0	0
121	5	21	F	Filler	132	7	While	1	578.0	NA
121	5	21	F	Filler	132	7	John	2	333.0	NA
121	5	21	F	Filler	132	7	and	3	233.0	NA
121	5	21	F	Filler	132	7	Mary	4	135.0	NA
121	5	21	F	Filler	132	7	kissed	5	134.0	NA
121	5	21	F	Filler	132	7	their	6	133.0	NA
121	5	21	F	Filler	132	7	daughter	7	167.0	NA
121	5	21	F	Filler	132	7	fell	8	333.0	NA
121	5	21	F	Filler	132	7	asleep.	9	167.0	NA
121	5	21	F	Question	132	7	NA	NA	1100.0	0
122	5	21	F	Filler	83	5	The	1	328.0	NA
122	5	21	F	Filler	83	5	passengers	2	232.0	NA
122	5	21	F	Filler	83	5	screamed	3	134.0	NA
122	5	21	F	Filler	83	5	as	4	101.0	NA
122	5	21	F	Filler	83	5	the	5	118.0	NA
122	5	21	F	Filler	83	5	plane	6	433.0	NA
122	5	21	F	Filler	83	5	dipped	7	232.0	NA
122	5	21	F	Filler	83	5	and	8	167.0	NA
122	5	21	F	Filler	83	5	the	9	416.0	NA
122	5	21	F	Filler	83	5	pilots	10	234.0	NA
122	5	21	F	Filler	83	5	said	11	433.0	NA
122	5	21	F	Filler	83	5	their	12	601.0	NA
122	5	21	F	Filler	83	5	prayers	13	366.0	NA
122	5	21	F	Filler	83	5	quietly.	14	902.0	NA
122	5	21	F	Question	83	5	NA	NA	732.0	1
123	5	21	F	Filler	116	6	As	1	562.0	NA
123	5	21	F	Filler	116	6	the	2	133.0	NA
123	5	21	F	Filler	116	6	survivors	3	168.0	NA
123	5	21	F	Filler	116	6	were	4	398.0	NA
123	5	21	F	Filler	116	6	embracing	5	367.0	NA
123	5	21	F	Filler	116	6	the	6	335.0	NA
123	5	21	F	Filler	116	6	firefighter	7	400.0	NA
123	5	21	F	Filler	116	6	coughed	8	267.0	NA
123	5	21	F	Filler	116	6	violently.	9	234.0	NA
123	5	21	F	Question	116	6	NA	NA	849.0	1
124	5	21	F	swets	2	3	The	1	895.0	NA
124	5	21	F	swets	2	3	sister	2	433.0	NA
124	5	21	F	swets	2	3	of	3	201.0	NA
124	5	21	F	swets	2	3	the	4	218.0	NA
124	5	21	F	swets	2	3	fireman	5	400.0	NA
124	5	21	F	swets	2	3	who	6	298.0	NA
124	5	21	F	swets	2	3	criticized	7	301.0	NA
124	5	21	F	swets	2	3	herself	8	267.0	NA
124	5	21	F	swets	2	3	far	9	232.0	NA
124	5	21	F	swets	2	3	too	10	267.0	NA
124	5	21	F	swets	2	3	often	11	301.0	NA
124	5	21	F	swets	2	3	was	12	299.0	NA
124	5	21	F	swets	2	3	painting	13	267.0	NA
124	5	21	F	swets	2	3	the	14	250.0	NA
124	5	21	F	swets	2	3	bedroom.	15	266.0	NA
124	5	21	F	Question	2	3	NA	NA	1152.0	0
125	5	21	F	Filler	82	5	The	1	179.0	NA
125	5	21	F	Filler	82	5	patient's	2	282.0	NA
125	5	21	F	Filler	82	5	seizures	3	201.0	NA
125	5	21	F	Filler	82	5	appeared	4	200.0	NA
125	5	21	F	Filler	82	5	to	5	216.0	NA
125	5	21	F	Filler	82	5	have	6	668.0	NA
125	5	21	F	Filler	82	5	been	7	267.0	NA
125	5	21	F	Filler	82	5	eliminated	8	199.0	NA
125	5	21	F	Filler	82	5	by	9	266.0	NA
125	5	21	F	Filler	82	5	the	10	167.0	NA
125	5	21	F	Filler	82	5	surgery.	11	233.0	NA
125	5	21	F	Question	82	5	NA	NA	2501.0	1
126	5	21	F	Filler	42	4	After	1	395.0	NA
126	5	21	F	Filler	42	4	dinner	2	233.0	NA
126	5	21	F	Filler	42	4	the	3	185.0	NA
126	5	21	F	Filler	42	4	children	4	231.0	NA
126	5	21	F	Filler	42	4	gathered	5	201.0	NA
126	5	21	F	Filler	42	4	in	6	233.0	NA
126	5	21	F	Filler	42	4	a	7	185.0	NA
126	5	21	F	Filler	42	4	circle	8	165.0	NA
126	5	21	F	Filler	42	4	to	9	167.0	NA
126	5	21	F	Filler	42	4	listen	10	166.0	NA
126	5	21	F	Filler	42	4	to	11	167.0	NA
126	5	21	F	Filler	42	4	their	12	200.0	NA
126	5	21	F	Filler	42	4	grandmother's	13	167.0	NA
126	5	21	F	Filler	42	4	stories	14	167.0	NA
126	5	21	F	Filler	42	4	about	15	167.0	NA
126	5	21	F	Filler	42	4	the	16	317.0	NA
126	5	21	F	Filler	42	4	good	17	200.0	NA
126	5	21	F	Filler	42	4	old	18	84.0	NA
126	5	21	F	Filler	42	4	days.	19	266.0	NA
126	5	21	F	Question	42	4	NA	NA	1300.0	1
127	5	21	F	Filler	126	6	The	1	244.0	NA
127	5	21	F	Filler	126	6	boxes	2	269.0	NA
127	5	21	F	Filler	126	6	and	3	231.0	NA
127	5	21	F	Filler	126	6	hangers	4	201.0	NA
127	5	21	F	Filler	126	6	had	5	199.0	NA
127	5	21	F	Filler	126	6	been	6	233.0	NA
127	5	21	F	Filler	126	6	stuffed	7	168.0	NA
127	5	21	F	Filler	126	6	in	8	283.0	NA
127	5	21	F	Filler	126	6	the	9	216.0	NA
127	5	21	F	Filler	126	6	closet.	10	200.0	NA
127	5	21	F	Question	126	6	NA	NA	601.0	1
128	5	21	F	Filler	121	6	The	1	629.0	NA
128	5	21	F	Filler	121	6	ecologist	2	267.0	NA
128	5	21	F	Filler	121	6	wondered	3	234.0	NA
128	5	21	F	Filler	121	6	which	4	233.0	NA
128	5	21	F	Filler	121	6	plants	5	299.0	NA
128	5	21	F	Filler	121	6	the	6	234.0	NA
128	5	21	F	Filler	121	6	scientist	7	299.0	NA
128	5	21	F	Filler	121	6	grew	8	168.0	NA
128	5	21	F	Filler	121	6	but	9	299.0	NA
128	5	21	F	Filler	121	6	didn't	10	167.0	NA
128	5	21	F	Filler	121	6	modify	11	235.0	NA
128	5	21	F	Filler	121	6	the	12	231.0	NA
128	5	21	F	Filler	121	6	seeds	13	234.0	NA
128	5	21	F	Filler	121	6	of	14	268.0	NA
128	5	21	F	Filler	121	6	in	15	233.0	NA
128	5	21	F	Filler	121	6	the	16	301.0	NA
128	5	21	F	Filler	121	6	lab.	17	232.0	NA
128	5	21	F	Question	121	6	NA	NA	1850.0	1
129	5	21	F	Filler	55	4	The	1	712.0	NA
129	5	21	F	Filler	55	4	people	2	201.0	NA
129	5	21	F	Filler	55	4	certainly	3	267.0	NA
129	5	21	F	Filler	55	4	admired	4	232.0	NA
129	5	21	F	Filler	55	4	the	5	185.0	NA
129	5	21	F	Filler	55	4	wife	6	199.0	NA
129	5	21	F	Filler	55	4	of	7	101.0	NA
129	5	21	F	Filler	55	4	the	8	249.0	NA
129	5	21	F	Filler	55	4	janitor	9	233.0	NA
129	5	21	F	Filler	55	4	because	10	201.0	NA
129	5	21	F	Filler	55	4	she	11	149.0	NA
129	5	21	F	Filler	55	4	educated	12	168.0	NA
129	5	21	F	Filler	55	4	herself	13	167.0	NA
129	5	21	F	Filler	55	4	at	14	167.0	NA
129	5	21	F	Filler	55	4	night.	15	365.0	NA
129	5	21	F	Question	55	4	NA	NA	1551.0	0
130	5	21	F	swets	9	1	The	1	8664.0	NA
130	5	21	F	swets	9	1	sister	2	800.0	NA
130	5	21	F	swets	9	1	of	3	334.0	NA
130	5	21	F	swets	9	1	the	4	199.0	NA
130	5	21	F	swets	9	1	schoolgirl	5	567.0	NA
130	5	21	F	swets	9	1	who	6	201.0	NA
130	5	21	F	swets	9	1	burned	7	232.0	NA
130	5	21	F	swets	9	1	herself	8	233.0	NA
130	5	21	F	swets	9	1	the	9	100.0	NA
130	5	21	F	swets	9	1	other	10	186.0	NA
130	5	21	F	swets	9	1	day	11	199.0	NA
130	5	21	F	swets	9	1	was	12	232.0	NA
130	5	21	F	swets	9	1	usually	13	268.0	NA
130	5	21	F	swets	9	1	very	14	300.0	NA
130	5	21	F	swets	9	1	careful.	15	200.0	NA
130	5	21	F	Question	9	1	NA	NA	1050.0	1
131	5	21	F	Filler	37	4	The	1	479.0	NA
131	5	21	F	Filler	37	4	party	2	201.0	NA
131	5	21	F	Filler	37	4	attracted	3	167.0	NA
131	5	21	F	Filler	37	4	the	4	216.0	NA
131	5	21	F	Filler	37	4	fraternity	5	233.0	NA
131	5	21	F	Filler	37	4	members	6	166.0	NA
131	5	21	F	Filler	37	4	whose	7	152.0	NA
131	5	21	F	Filler	37	4	house	8	166.0	NA
131	5	21	F	Filler	37	4	had	9	199.0	NA
131	5	21	F	Filler	37	4	been	10	135.0	NA
131	5	21	F	Filler	37	4	seized	11	165.0	NA
131	5	21	F	Filler	37	4	by	12	200.0	NA
131	5	21	F	Filler	37	4	drug	13	101.0	NA
131	5	21	F	Filler	37	4	agents.	14	200.0	NA
131	5	21	F	Question	37	4	NA	NA	1800.0	1
132	5	21	F	Filler	57	4	The	1	629.0	NA
132	5	21	F	Filler	57	4	architect	2	199.0	NA
132	5	21	F	Filler	57	4	was	3	268.0	NA
132	5	21	F	Filler	57	4	embarrassed	4	233.0	NA
132	5	21	F	Filler	57	4	by	5	200.0	NA
132	5	21	F	Filler	57	4	the	6	167.0	NA
132	5	21	F	Filler	57	4	memo	7	300.0	NA
132	5	21	F	Filler	57	4	of	8	232.0	NA
132	5	21	F	Filler	57	4	the	9	220.0	NA
132	5	21	F	Filler	57	4	engineer	10	266.0	NA
132	5	21	F	Filler	57	4	because	11	233.0	NA
132	5	21	F	Filler	57	4	it	12	233.0	NA
132	5	21	F	Filler	57	4	said	13	200.0	NA
132	5	21	F	Filler	57	4	that	14	234.0	NA
132	5	21	F	Filler	57	4	his	15	167.0	NA
132	5	21	F	Filler	57	4	building	16	232.0	NA
132	5	21	F	Filler	57	4	would	17	201.0	NA
132	5	21	F	Filler	57	4	collapse.	18	233.0	NA
132	5	21	F	Question	57	4	NA	NA	1650.0	1
133	5	21	F	swets	26	3	The	1	NA	NA
134	5	21	F	Filler	119	6	Everybody	1	794.0	NA
134	5	21	F	Filler	119	6	is	2	201.0	NA
134	5	21	F	Filler	119	6	wondering	3	201.0	NA
134	5	21	F	Filler	119	6	which	4	266.0	NA
134	5	21	F	Filler	119	6	software	5	233.0	NA
134	5	21	F	Filler	119	6	Gary	6	234.0	NA
134	5	21	F	Filler	119	6	installed	7	234.0	NA
134	5	21	F	Filler	119	6	without	8	233.0	NA
134	5	21	F	Filler	119	6	buying	9	233.0	NA
134	5	21	F	Filler	119	6	last	10	234.0	NA
134	5	21	F	Filler	119	6	June.	11	249.0	NA
134	5	21	F	Question	119	6	NA	NA	1000.0	0
135	5	21	F	Filler	104	5	Despite	1	313.0	NA
135	5	21	F	Filler	104	5	the	2	233.0	NA
135	5	21	F	Filler	104	5	relative	3	266.0	NA
135	5	21	F	Filler	104	5	lack	4	234.0	NA
135	5	21	F	Filler	104	5	of	5	266.0	NA
135	5	21	F	Filler	104	5	rain	6	200.0	NA
135	5	21	F	Filler	104	5	the	7	300.0	NA
135	5	21	F	Filler	104	5	farmer	8	233.0	NA
135	5	21	F	Filler	104	5	harvested	9	201.0	NA
135	5	21	F	Filler	104	5	much	10	232.0	NA
135	5	21	F	Filler	104	5	wheat.	11	201.0	NA
135	5	21	F	Question	104	5	NA	NA	751.0	0
136	5	21	F	Filler	46	4	The	1	328.0	NA
136	5	21	F	Filler	46	4	preacher	2	233.0	NA
136	5	21	F	Filler	46	4	of	3	234.0	NA
136	5	21	F	Filler	46	4	the	4	217.0	NA
136	5	21	F	Filler	46	4	congregation	5	200.0	NA
136	5	21	F	Filler	46	4	had	6	332.0	NA
136	5	21	F	Filler	46	4	given	7	200.0	NA
136	5	21	F	Filler	46	4	a	8	184.0	NA
136	5	21	F	Filler	46	4	sermon	9	266.0	NA
136	5	21	F	Filler	46	4	at	10	235.0	NA
136	5	21	F	Filler	46	4	a	11	200.0	NA
136	5	21	F	Filler	46	4	local	12	267.0	NA
136	5	21	F	Filler	46	4	school.	13	266.0	NA
136	5	21	F	Question	46	4	NA	NA	1699.0	1
137	5	21	F	Filler	96	5	The	1	411.0	NA
137	5	21	F	Filler	96	5	evil	2	203.0	NA
137	5	21	F	Filler	96	5	man	3	265.0	NA
137	5	21	F	Filler	96	5	watched	4	201.0	NA
137	5	21	F	Filler	96	5	the	5	217.0	NA
137	5	21	F	Filler	96	5	doorway	6	200.0	NA
137	5	21	F	Filler	96	5	of	7	166.0	NA
137	5	21	F	Filler	96	5	the	8	151.0	NA
137	5	21	F	Filler	96	5	bar	9	166.0	NA
137	5	21	F	Filler	96	5	every	10	199.0	NA
137	5	21	F	Filler	96	5	Friday	11	135.0	NA
137	5	21	F	Filler	96	5	night.	12	332.0	NA
137	5	21	F	Question	96	5	NA	NA	1150.0	0
138	5	21	F	swets	21	1	The	1	329.0	NA
138	5	21	F	swets	21	1	son	2	267.0	NA
138	5	21	F	swets	21	1	of	3	266.0	NA
138	5	21	F	swets	21	1	the	4	183.0	NA
138	5	21	F	swets	21	1	janitor	5	233.0	NA
138	5	21	F	swets	21	1	who	6	184.0	NA
138	5	21	F	swets	21	1	educated	7	232.0	NA
138	5	21	F	swets	21	1	himself	8	201.0	NA
138	5	21	F	swets	21	1	at	9	233.0	NA
138	5	21	F	swets	21	1	night	10	200.0	NA
138	5	21	F	swets	21	1	loved	11	234.0	NA
138	5	21	F	swets	21	1	going	12	232.0	NA
138	5	21	F	swets	21	1	to	13	186.0	NA
138	5	21	F	swets	21	1	the	14	198.0	NA
138	5	21	F	swets	21	1	theatre.	15	233.0	NA
138	5	21	F	Question	21	1	NA	NA	2500.0	0
139	5	21	F	Filler	118	6	As	1	363.0	NA
139	5	21	F	Filler	118	6	the	2	349.0	NA
139	5	21	F	Filler	118	6	dog	3	267.0	NA
139	5	21	F	Filler	118	6	ran	4	233.0	NA
139	5	21	F	Filler	118	6	Wanda	5	101.0	NA
139	5	21	F	Filler	118	6	watched	6	167.0	NA
139	5	21	F	Filler	118	6	from	7	165.0	NA
139	5	21	F	Filler	118	6	the	8	135.0	NA
139	5	21	F	Filler	118	6	window.	9	332.0	NA
139	5	21	F	Question	118	6	NA	NA	1233.0	1
140	5	21	F	swets	34	2	The	1	396.0	NA
140	5	21	F	swets	34	2	waiter	2	199.0	NA
140	5	21	F	swets	34	2	of	3	166.0	NA
140	5	21	F	swets	34	2	the	4	167.0	NA
140	5	21	F	swets	34	2	woman	5	167.0	NA
140	5	21	F	swets	34	2	who	6	150.0	NA
140	5	21	F	swets	34	2	considered	7	167.0	NA
140	5	21	F	swets	34	2	herself	8	167.0	NA
140	5	21	F	swets	34	2	a	9	199.0	NA
140	5	21	F	swets	34	2	natural	10	366.0	NA
140	5	21	F	swets	34	2	beauty	11	234.0	NA
140	5	21	F	swets	34	2	spilled	12	367.0	NA
140	5	21	F	swets	34	2	the	13	384.0	NA
140	5	21	F	swets	34	2	drinks.	14	266.0	NA
140	5	21	F	Question	34	2	NA	NA	2400.0	1
141	5	21	F	Filler	134	7	As	1	560.0	NA
141	5	21	F	Filler	134	7	Shawnie	2	235.0	NA
141	5	21	F	Filler	134	7	and	3	166.0	NA
141	5	21	F	Filler	134	7	Nick	4	234.0	NA
141	5	21	F	Filler	134	7	were	5	184.0	NA
141	5	21	F	Filler	134	7	embracing	6	165.0	NA
141	5	21	F	Filler	134	7	the	7	167.0	NA
141	5	21	F	Filler	134	7	doctor	8	185.0	NA
141	5	21	F	Filler	134	7	the	9	166.0	NA
141	5	21	F	Filler	134	7	visitor	10	199.0	NA
141	5	21	F	Filler	134	7	entered	11	168.0	NA
141	5	21	F	Filler	134	7	the	12	167.0	NA
141	5	21	F	Filler	134	7	room.	13	166.0	NA
141	5	21	F	Question	134	7	NA	NA	1800.0	1
142	5	21	F	Filler	70	4	The	1	427.0	NA
142	5	21	F	Filler	70	4	warden	2	168.0	NA
142	5	21	F	Filler	70	4	was	3	165.0	NA
142	5	21	F	Filler	70	4	dissatisfied	4	134.0	NA
142	5	21	F	Filler	70	4	with	5	167.0	NA
142	5	21	F	Filler	70	4	the	6	167.0	NA
142	5	21	F	Filler	70	4	decision	7	166.0	NA
142	5	21	F	Filler	70	4	of	8	168.0	NA
142	5	21	F	Filler	70	4	the	9	150.0	NA
142	5	21	F	Filler	70	4	parole	10	167.0	NA
142	5	21	F	Filler	70	4	committee	11	366.0	NA
142	5	21	F	Filler	70	4	to	12	184.0	NA
142	5	21	F	Filler	70	4	pardon	13	333.0	NA
142	5	21	F	Filler	70	4	the	14	183.0	NA
142	5	21	F	Filler	70	4	prisoner.	15	199.0	NA
142	5	21	F	Question	70	4	NA	NA	2551.0	1
143	5	21	F	Filler	43	4	The	1	478.0	NA
143	5	21	F	Filler	43	4	movie	2	201.0	NA
143	5	21	F	Filler	43	4	director	3	232.0	NA
143	5	21	F	Filler	43	4	refused	4	168.0	NA
143	5	21	F	Filler	43	4	to	5	216.0	NA
143	5	21	F	Filler	43	4	work	6	201.0	NA
143	5	21	F	Filler	43	4	with	7	199.0	NA
143	5	21	F	Filler	43	4	the	8	185.0	NA
143	5	21	F	Filler	43	4	producer	9	133.0	NA
143	5	21	F	Filler	43	4	again	10	167.0	NA
143	5	21	F	Filler	43	4	after	11	165.0	NA
143	5	21	F	Filler	43	4	winning	12	134.0	NA
143	5	21	F	Filler	43	4	the	13	135.0	NA
143	5	21	F	Filler	43	4	grand	14	166.0	NA
143	5	21	F	Filler	43	4	prize.	15	201.0	NA
143	5	21	F	Question	43	4	NA	NA	3649.0	1
