trial	subj	age	gender	stimulustype	item	condition	word	position	rt	correct
0	6	21	M	Filler	141	7	The	1	596.0	NA
0	6	21	M	Filler	141	7	nurse	2	450.0	NA
0	6	21	M	Filler	141	7	and	3	284.0	NA
0	6	21	M	Filler	141	7	custodian	4	250.0	NA
0	6	21	M	Filler	141	7	chatted	5	399.0	NA
0	6	21	M	Filler	141	7	during	6	518.0	NA
0	6	21	M	Filler	141	7	their	7	367.0	NA
0	6	21	M	Filler	141	7	break.	8	366.0	NA
0	6	21	M	Question	141	7	NA	NA	1900.0	1
1	6	21	M	Filler	134	7	As	1	396.0	NA
1	6	21	M	Filler	134	7	Shawnie	2	282.0	NA
1	6	21	M	Filler	134	7	and	3	384.0	NA
1	6	21	M	Filler	134	7	Nick	4	217.0	NA
1	6	21	M	Filler	134	7	were	5	384.0	NA
1	6	21	M	Filler	134	7	embracing	6	233.0	NA
1	6	21	M	Filler	134	7	the	7	317.0	NA
1	6	21	M	Filler	134	7	doctor	8	250.0	NA
1	6	21	M	Filler	134	7	the	9	468.0	NA
1	6	21	M	Filler	134	7	visitor	10	516.0	NA
1	6	21	M	Filler	134	7	entered	11	734.0	NA
1	6	21	M	Filler	134	7	the	12	432.0	NA
1	6	21	M	Filler	134	7	room.	13	551.0	NA
1	6	21	M	Question	134	7	NA	NA	2233.0	1
2	6	21	M	swets	27	2	The	1	463.0	NA
2	6	21	M	swets	27	2	sister	2	265.0	NA
2	6	21	M	swets	27	2	of	3	251.0	NA
2	6	21	M	swets	27	2	the	4	250.0	NA
2	6	21	M	swets	27	2	butcher	5	283.0	NA
2	6	21	M	swets	27	2	who	6	301.0	NA
2	6	21	M	swets	27	2	invited	7	416.0	NA
2	6	21	M	swets	27	2	himself	8	351.0	NA
2	6	21	M	swets	27	2	to	9	251.0	NA
2	6	21	M	swets	27	2	the	10	733.0	NA
2	6	21	M	swets	27	2	party	11	500.0	NA
2	6	21	M	swets	27	2	enjoyed	12	450.0	NA
2	6	21	M	swets	27	2	it	13	567.0	NA
2	6	21	M	swets	27	2	quite	14	518.0	NA
2	6	21	M	swets	27	2	a	15	400.0	NA
2	6	21	M	swets	27	2	bit.	16	333.0	NA
2	6	21	M	Question	27	2	NA	NA	4567.0	1
3	6	21	M	Filler	57	4	The	1	528.0	NA
3	6	21	M	Filler	57	4	architect	2	383.0	NA
3	6	21	M	Filler	57	4	was	3	268.0	NA
3	6	21	M	Filler	57	4	embarrassed	4	232.0	NA
3	6	21	M	Filler	57	4	by	5	334.0	NA
3	6	21	M	Filler	57	4	the	6	267.0	NA
3	6	21	M	Filler	57	4	memo	7	533.0	NA
3	6	21	M	Filler	57	4	of	8	350.0	NA
3	6	21	M	Filler	57	4	the	9	318.0	NA
3	6	21	M	Filler	57	4	engineer	10	332.0	NA
3	6	21	M	Filler	57	4	because	11	467.0	NA
3	6	21	M	Filler	57	4	it	12	467.0	NA
3	6	21	M	Filler	57	4	said	13	317.0	NA
3	6	21	M	Filler	57	4	that	14	300.0	NA
3	6	21	M	Filler	57	4	his	15	333.0	NA
3	6	21	M	Filler	57	4	building	16	300.0	NA
3	6	21	M	Filler	57	4	would	17	368.0	NA
3	6	21	M	Filler	57	4	collapse.	18	382.0	NA
3	6	21	M	Question	57	4	NA	NA	3785.0	1
4	6	21	M	Filler	75	5	The	1	545.0	NA
4	6	21	M	Filler	75	5	musician	2	250.0	NA
4	6	21	M	Filler	75	5	shocked	3	350.0	NA
4	6	21	M	Filler	75	5	the	4	433.0	NA
4	6	21	M	Filler	75	5	audience	5	366.0	NA
4	6	21	M	Filler	75	5	because	6	367.0	NA
4	6	21	M	Filler	75	5	they	7	285.0	NA
4	6	21	M	Filler	75	5	did	8	300.0	NA
4	6	21	M	Filler	75	5	not	9	316.0	NA
4	6	21	M	Filler	75	5	realize	10	234.0	NA
4	6	21	M	Filler	75	5	what	11	350.0	NA
4	6	21	M	Filler	75	5	these	12	349.0	NA
4	6	21	M	Filler	75	5	shows	13	334.0	NA
4	6	21	M	Filler	75	5	were	14	284.0	NA
4	6	21	M	Filler	75	5	like.	15	300.0	NA
4	6	21	M	Question	75	5	NA	NA	2700.0	1
5	6	21	M	Filler	90	5	The	1	428.0	NA
5	6	21	M	Filler	90	5	artist	2	350.0	NA
5	6	21	M	Filler	90	5	was	3	317.0	NA
5	6	21	M	Filler	90	5	not	4	335.0	NA
5	6	21	M	Filler	90	5	satisfied	5	249.0	NA
5	6	21	M	Filler	90	5	with	6	266.0	NA
5	6	21	M	Filler	90	5	his	7	318.0	NA
5	6	21	M	Filler	90	5	painting	8	382.0	NA
5	6	21	M	Filler	90	5	because	9	416.0	NA
5	6	21	M	Filler	90	5	the	10	467.0	NA
5	6	21	M	Filler	90	5	shading	11	469.0	NA
5	6	21	M	Filler	90	5	was	12	367.0	NA
5	6	21	M	Filler	90	5	off.	13	333.0	NA
5	6	21	M	Question	90	5	NA	NA	3133.0	1
6	6	21	M	Filler	120	6	Sarah	1	845.0	NA
6	6	21	M	Filler	120	6	won't	2	399.0	NA
6	6	21	M	Filler	120	6	reveal	3	269.0	NA
6	6	21	M	Filler	120	6	which	4	300.0	NA
6	6	21	M	Filler	120	6	race	5	282.0	NA
6	6	21	M	Filler	120	6	she	6	300.0	NA
6	6	21	M	Filler	120	6	won	7	300.0	NA
6	6	21	M	Filler	120	6	without	8	334.0	NA
6	6	21	M	Filler	120	6	entering	9	318.0	NA
6	6	21	M	Filler	120	6	the	10	299.0	NA
6	6	21	M	Filler	120	6	competition	11	400.0	NA
6	6	21	M	Filler	120	6	for	12	350.0	NA
6	6	21	M	Filler	120	6	officially.	13	350.0	NA
6	6	21	M	Question	120	6	NA	NA	4101.0	1
7	6	21	M	swets	3	2	The	1	444.0	NA
7	6	21	M	swets	3	2	secretary	2	299.0	NA
7	6	21	M	swets	3	2	of	3	318.0	NA
7	6	21	M	swets	3	2	the	4	250.0	NA
7	6	21	M	swets	3	2	salesman	5	267.0	NA
7	6	21	M	swets	3	2	who	6	283.0	NA
7	6	21	M	swets	3	2	amused	7	301.0	NA
7	6	21	M	swets	3	2	himself	8	349.0	NA
7	6	21	M	swets	3	2	quite	9	284.0	NA
7	6	21	M	swets	3	2	a	10	368.0	NA
7	6	21	M	swets	3	2	bit	11	332.0	NA
7	6	21	M	swets	3	2	was	12	351.0	NA
7	6	21	M	swets	3	2	writing	13	300.0	NA
7	6	21	M	swets	3	2	a	14	416.0	NA
7	6	21	M	swets	3	2	letter	15	417.0	NA
7	6	21	M	swets	3	2	to	16	367.0	NA
7	6	21	M	swets	3	2	the	17	683.0	NA
7	6	21	M	swets	3	2	editor.	18	867.0	NA
7	6	21	M	Question	3	2	NA	NA	4301.0	0
8	6	21	M	Filler	72	4	The	1	345.0	NA
8	6	21	M	Filler	72	4	secretaries	2	249.0	NA
8	6	21	M	Filler	72	4	couldn't	3	319.0	NA
8	6	21	M	Filler	72	4	break	4	250.0	NA
8	6	21	M	Filler	72	4	away	5	265.0	NA
8	6	21	M	Filler	72	4	from	6	300.0	NA
8	6	21	M	Filler	72	4	their	7	317.0	NA
8	6	21	M	Filler	72	4	habit	8	369.0	NA
8	6	21	M	Filler	72	4	of	9	349.0	NA
8	6	21	M	Filler	72	4	coffee	10	284.0	NA
8	6	21	M	Filler	72	4	and	11	283.0	NA
8	6	21	M	Filler	72	4	cigarettes	12	283.0	NA
8	6	21	M	Filler	72	4	during	13	334.0	NA
8	6	21	M	Filler	72	4	their	14	284.0	NA
8	6	21	M	Filler	72	4	breaks.	15	648.0	NA
8	6	21	M	Question	72	4	NA	NA	2835.0	1
9	6	21	M	Filler	47	4	The	1	410.0	NA
9	6	21	M	Filler	47	4	boys	2	234.0	NA
9	6	21	M	Filler	47	4	all	3	284.0	NA
9	6	21	M	Filler	47	4	admired	4	366.0	NA
9	6	21	M	Filler	47	4	the	5	268.0	NA
9	6	21	M	Filler	47	4	singer	6	300.0	NA
9	6	21	M	Filler	47	4	of	7	250.0	NA
9	6	21	M	Filler	47	4	the	8	300.0	NA
9	6	21	M	Filler	47	4	song	9	267.0	NA
9	6	21	M	Filler	47	4	with	10	317.0	NA
9	6	21	M	Filler	47	4	the	11	300.0	NA
9	6	21	M	Filler	47	4	long	12	266.0	NA
9	6	21	M	Filler	47	4	eyelashes.	13	301.0	NA
9	6	21	M	Question	47	4	NA	NA	3268.0	1
10	6	21	M	Filler	132	7	While	1	378.0	NA
10	6	21	M	Filler	132	7	John	2	267.0	NA
10	6	21	M	Filler	132	7	and	3	201.0	NA
10	6	21	M	Filler	132	7	Mary	4	282.0	NA
10	6	21	M	Filler	132	7	kissed	5	335.0	NA
10	6	21	M	Filler	132	7	their	6	267.0	NA
10	6	21	M	Filler	132	7	daughter	7	283.0	NA
10	6	21	M	Filler	132	7	fell	8	300.0	NA
10	6	21	M	Filler	132	7	asleep.	9	317.0	NA
10	6	21	M	Question	132	7	NA	NA	2667.0	1
11	6	21	M	swets	9	2	The	1	496.0	NA
11	6	21	M	swets	9	2	father	2	284.0	NA
11	6	21	M	swets	9	2	of	3	215.0	NA
11	6	21	M	swets	9	2	the	4	266.0	NA
11	6	21	M	swets	9	2	schoolgirl	5	282.0	NA
11	6	21	M	swets	9	2	who	6	268.0	NA
11	6	21	M	swets	9	2	burned	7	317.0	NA
11	6	21	M	swets	9	2	herself	8	284.0	NA
11	6	21	M	swets	9	2	the	9	450.0	NA
11	6	21	M	swets	9	2	other	10	415.0	NA
11	6	21	M	swets	9	2	day	11	335.0	NA
11	6	21	M	swets	9	2	was	12	417.0	NA
11	6	21	M	swets	9	2	usually	13	1133.0	NA
11	6	21	M	swets	9	2	very	14	384.0	NA
11	6	21	M	swets	9	2	careful.	15	450.0	NA
11	6	21	M	Question	9	2	NA	NA	5335.0	1
12	6	21	M	Filler	92	5	The	1	378.0	NA
12	6	21	M	Filler	92	5	personal	2	284.0	NA
12	6	21	M	Filler	92	5	trainer	3	301.0	NA
12	6	21	M	Filler	92	5	was	4	299.0	NA
12	6	21	M	Filler	92	5	popular	5	299.0	NA
12	6	21	M	Filler	92	5	among	6	268.0	NA
12	6	21	M	Filler	92	5	athletes	7	333.0	NA
12	6	21	M	Filler	92	5	after	8	333.0	NA
12	6	21	M	Filler	92	5	he	9	382.0	NA
12	6	21	M	Filler	92	5	helped	10	402.0	NA
12	6	21	M	Filler	92	5	the	11	466.0	NA
12	6	21	M	Filler	92	5	bodybuilder	12	368.0	NA
12	6	21	M	Filler	92	5	win	13	333.0	NA
12	6	21	M	Filler	92	5	the	14	349.0	NA
12	6	21	M	Filler	92	5	competition.	15	451.0	NA
12	6	21	M	Question	92	5	NA	NA	2634.0	1
13	6	21	M	Filler	126	6	The	1	344.0	NA
13	6	21	M	Filler	126	6	boxes	2	284.0	NA
13	6	21	M	Filler	126	6	and	3	317.0	NA
13	6	21	M	Filler	126	6	hangers	4	251.0	NA
13	6	21	M	Filler	126	6	had	5	350.0	NA
13	6	21	M	Filler	126	6	been	6	416.0	NA
13	6	21	M	Filler	126	6	stuffed	7	350.0	NA
13	6	21	M	Filler	126	6	in	8	400.0	NA
13	6	21	M	Filler	126	6	the	9	333.0	NA
13	6	21	M	Filler	126	6	closet.	10	369.0	NA
13	6	21	M	Question	126	6	NA	NA	4950.0	1
14	6	21	M	Filler	102	5	The	1	363.0	NA
14	6	21	M	Filler	102	5	old	2	282.0	NA
14	6	21	M	Filler	102	5	man	3	268.0	NA
14	6	21	M	Filler	102	5	appeared	4	316.0	NA
14	6	21	M	Filler	102	5	to	5	283.0	NA
14	6	21	M	Filler	102	5	be	6	283.0	NA
14	6	21	M	Filler	102	5	upset	7	349.0	NA
14	6	21	M	Filler	102	5	by	8	303.0	NA
14	6	21	M	Filler	102	5	the	9	350.0	NA
14	6	21	M	Filler	102	5	teenager's	10	548.0	NA
14	6	21	M	Filler	102	5	ignorant	11	534.0	NA
14	6	21	M	Filler	102	5	remark.	12	385.0	NA
14	6	21	M	Question	102	5	NA	NA	3168.0	1
15	6	21	M	Filler	109	6	While	1	545.0	NA
15	6	21	M	Filler	109	6	the	2	300.0	NA
15	6	21	M	Filler	109	6	farmer	3	267.0	NA
15	6	21	M	Filler	109	6	steered	4	300.0	NA
15	6	21	M	Filler	109	6	the	5	316.0	NA
15	6	21	M	Filler	109	6	truck	6	350.0	NA
15	6	21	M	Filler	109	6	the	7	334.0	NA
15	6	21	M	Filler	109	6	tractor	8	366.0	NA
15	6	21	M	Filler	109	6	pulled	9	368.0	NA
15	6	21	M	Filler	109	6	the	10	400.0	NA
15	6	21	M	Filler	109	6	plough.	11	516.0	NA
15	6	21	M	Question	109	6	NA	NA	4268.0	1
16	6	21	M	swets	36	2	The	1	861.0	NA
16	6	21	M	swets	36	2	son	2	349.0	NA
16	6	21	M	swets	36	2	of	3	569.0	NA
16	6	21	M	swets	36	2	the	4	334.0	NA
16	6	21	M	swets	36	2	saleswoman	5	765.0	NA
16	6	21	M	swets	36	2	who	6	650.0	NA
16	6	21	M	swets	36	2	talked	7	367.0	NA
16	6	21	M	swets	36	2	to	8	434.0	NA
16	6	21	M	swets	36	2	herself	9	516.0	NA
16	6	21	M	swets	36	2	all	10	501.0	NA
16	6	21	M	swets	36	2	the	11	449.0	NA
16	6	21	M	swets	36	2	time	12	819.0	NA
16	6	21	M	swets	36	2	walked	13	415.0	NA
16	6	21	M	swets	36	2	into	14	350.0	NA
16	6	21	M	swets	36	2	the	15	352.0	NA
16	6	21	M	swets	36	2	room.	16	366.0	NA
16	6	21	M	Question	36	2	NA	NA	3101.0	0
17	6	21	M	Filler	89	5	Jim	1	1094.0	NA
17	6	21	M	Filler	89	5	watered	2	450.0	NA
17	6	21	M	Filler	89	5	the	3	318.0	NA
17	6	21	M	Filler	89	5	tropical	4	350.0	NA
17	6	21	M	Filler	89	5	plants	5	352.0	NA
17	6	21	M	Filler	89	5	of	6	517.0	NA
17	6	21	M	Filler	89	5	his	7	449.0	NA
17	6	21	M	Filler	89	5	neighbor	8	351.0	NA
17	6	21	M	Filler	89	5	because	9	366.0	NA
17	6	21	M	Filler	89	5	she	10	366.0	NA
17	6	21	M	Filler	89	5	had	11	366.0	NA
17	6	21	M	Filler	89	5	gone	12	367.0	NA
17	6	21	M	Filler	89	5	out	13	368.0	NA
17	6	21	M	Filler	89	5	of	14	350.0	NA
17	6	21	M	Filler	89	5	town	15	350.0	NA
17	6	21	M	Filler	89	5	for	16	416.0	NA
17	6	21	M	Filler	89	5	a	17	368.0	NA
17	6	21	M	Filler	89	5	few	18	349.0	NA
17	6	21	M	Filler	89	5	days.	19	367.0	NA
17	6	21	M	Question	89	5	NA	NA	3001.0	1
18	6	21	M	Filler	65	4	Even	1	563.0	NA
18	6	21	M	Filler	65	4	though	2	315.0	NA
18	6	21	M	Filler	65	4	the	3	235.0	NA
18	6	21	M	Filler	65	4	goalie	4	283.0	NA
18	6	21	M	Filler	65	4	had	5	282.0	NA
18	6	21	M	Filler	65	4	a	6	267.0	NA
18	6	21	M	Filler	65	4	bad	7	333.0	NA
18	6	21	M	Filler	65	4	cold	8	302.0	NA
18	6	21	M	Filler	65	4	the	9	300.0	NA
18	6	21	M	Filler	65	4	team	10	317.0	NA
18	6	21	M	Filler	65	4	was	11	315.0	NA
18	6	21	M	Filler	65	4	preparing	12	368.0	NA
18	6	21	M	Filler	65	4	for	13	599.0	NA
18	6	21	M	Filler	65	4	the	14	435.0	NA
18	6	21	M	Filler	65	4	tournament.	15	366.0	NA
18	6	21	M	Question	65	4	NA	NA	6770.0	1
19	6	21	M	Filler	45	4	The	1	1429.0	NA
19	6	21	M	Filler	45	4	plumber	2	133.0	NA
19	6	21	M	Filler	45	4	repaired	3	250.0	NA
19	6	21	M	Filler	45	4	the	4	218.0	NA
19	6	21	M	Filler	45	4	sink	5	266.0	NA
19	6	21	M	Filler	45	4	of	6	251.0	NA
19	6	21	M	Filler	45	4	the	7	266.0	NA
19	6	21	M	Filler	45	4	tenant	8	234.0	NA
19	6	21	M	Filler	45	4	because	9	350.0	NA
19	6	21	M	Filler	45	4	he	10	250.0	NA
19	6	21	M	Filler	45	4	had	11	317.0	NA
19	6	21	M	Filler	45	4	just	12	366.0	NA
19	6	21	M	Filler	45	4	moved	13	350.0	NA
19	6	21	M	Filler	45	4	in.	14	334.0	NA
19	6	21	M	Question	45	4	NA	NA	2568.0	1
20	6	21	M	swets	30	2	The	1	495.0	NA
20	6	21	M	swets	30	2	bodyguard	2	151.0	NA
20	6	21	M	swets	30	2	of	3	300.0	NA
20	6	21	M	swets	30	2	the	4	249.0	NA
20	6	21	M	swets	30	2	baroness	5	283.0	NA
20	6	21	M	swets	30	2	who	6	317.0	NA
20	6	21	M	swets	30	2	prepared	7	268.0	NA
20	6	21	M	swets	30	2	herself	8	283.0	NA
20	6	21	M	swets	30	2	very	9	267.0	NA
20	6	21	M	swets	30	2	thoroughly	10	282.0	NA
20	6	21	M	swets	30	2	came	11	284.0	NA
20	6	21	M	swets	30	2	from	12	284.0	NA
20	6	21	M	swets	30	2	the	13	1784.0	NA
20	6	21	M	swets	30	2	south.	14	667.0	NA
20	6	21	M	Question	30	2	NA	NA	6484.0	0
21	6	21	M	Filler	83	5	The	1	428.0	NA
21	6	21	M	Filler	83	5	passengers	2	284.0	NA
21	6	21	M	Filler	83	5	screamed	3	284.0	NA
21	6	21	M	Filler	83	5	as	4	249.0	NA
21	6	21	M	Filler	83	5	the	5	219.0	NA
21	6	21	M	Filler	83	5	plane	6	198.0	NA
21	6	21	M	Filler	83	5	dipped	7	217.0	NA
21	6	21	M	Filler	83	5	and	8	234.0	NA
21	6	21	M	Filler	83	5	the	9	267.0	NA
21	6	21	M	Filler	83	5	pilots	10	234.0	NA
21	6	21	M	Filler	83	5	said	11	233.0	NA
21	6	21	M	Filler	83	5	their	12	267.0	NA
21	6	21	M	Filler	83	5	prayers	13	282.0	NA
21	6	21	M	Filler	83	5	quietly.	14	300.0	NA
21	6	21	M	Question	83	5	NA	NA	1601.0	1
22	6	21	M	Filler	77	5	Outside	1	560.0	NA
22	6	21	M	Filler	77	5	the	2	284.0	NA
22	6	21	M	Filler	77	5	courthouse	3	250.0	NA
22	6	21	M	Filler	77	5	the	4	267.0	NA
22	6	21	M	Filler	77	5	committee	5	266.0	NA
22	6	21	M	Filler	77	5	awarded	6	268.0	NA
22	6	21	M	Filler	77	5	a	7	300.0	NA
22	6	21	M	Filler	77	5	lifetime	8	284.0	NA
22	6	21	M	Filler	77	5	achievement	9	283.0	NA
22	6	21	M	Filler	77	5	prize	10	334.0	NA
22	6	21	M	Filler	77	5	to	11	283.0	NA
22	6	21	M	Filler	77	5	the	12	351.0	NA
22	6	21	M	Filler	77	5	creator	13	265.0	NA
22	6	21	M	Filler	77	5	of	14	249.0	NA
22	6	21	M	Filler	77	5	the	15	252.0	NA
22	6	21	M	Filler	77	5	sculpture.	16	334.0	NA
22	6	21	M	Question	77	5	NA	NA	2234.0	1
23	6	21	M	swets	20	1	The	1	345.0	NA
23	6	21	M	swets	20	1	brother	2	299.0	NA
23	6	21	M	swets	20	1	of	3	234.0	NA
23	6	21	M	swets	20	1	the	4	284.0	NA
23	6	21	M	swets	20	1	count	5	282.0	NA
23	6	21	M	swets	20	1	who	6	252.0	NA
23	6	21	M	swets	20	1	crippled	7	250.0	NA
23	6	21	M	swets	20	1	himself	8	315.0	NA
23	6	21	M	swets	20	1	by	9	302.0	NA
23	6	21	M	swets	20	1	falling	10	450.0	NA
23	6	21	M	swets	20	1	off	11	299.0	NA
23	6	21	M	swets	20	1	a	12	302.0	NA
23	6	21	M	swets	20	1	horse	13	449.0	NA
23	6	21	M	swets	20	1	took	14	1216.0	NA
23	6	21	M	swets	20	1	a	15	451.0	NA
23	6	21	M	swets	20	1	long	16	400.0	NA
23	6	21	M	swets	20	1	time	17	418.0	NA
23	6	21	M	swets	20	1	to	18	350.0	NA
23	6	21	M	swets	20	1	get	19	400.0	NA
23	6	21	M	swets	20	1	over	20	350.0	NA
23	6	21	M	swets	20	1	it.	21	682.0	NA
23	6	21	M	Question	20	1	NA	NA	36628.0	1
24	6	21	M	Filler	74	5	My	1	662.0	NA
24	6	21	M	Filler	74	5	former	2	301.0	NA
24	6	21	M	Filler	74	5	girlfriend	3	299.0	NA
24	6	21	M	Filler	74	5	criticized	4	267.0	NA
24	6	21	M	Filler	74	5	the	5	250.0	NA
24	6	21	M	Filler	74	5	author's	6	234.0	NA
24	6	21	M	Filler	74	5	agent	7	282.0	NA
24	6	21	M	Filler	74	5	because	8	302.0	NA
24	6	21	M	Filler	74	5	he	9	382.0	NA
24	6	21	M	Filler	74	5	had	10	351.0	NA
24	6	21	M	Filler	74	5	failed	11	1832.0	NA
24	6	21	M	Filler	74	5	to	12	469.0	NA
24	6	21	M	Filler	74	5	meet	13	582.0	NA
24	6	21	M	Filler	74	5	a	14	400.0	NA
24	6	21	M	Filler	74	5	deadline.	15	466.0	NA
24	6	21	M	Question	74	5	NA	NA	3653.0	1
25	6	21	M	Filler	127	7	While	1	512.0	NA
25	6	21	M	Filler	127	7	Linda	2	382.0	NA
25	6	21	M	Filler	127	7	wrote	3	318.0	NA
25	6	21	M	Filler	127	7	the	4	282.0	NA
25	6	21	M	Filler	127	7	letter	5	235.0	NA
25	6	21	M	Filler	127	7	arrived	6	299.0	NA
25	6	21	M	Filler	127	7	from	7	285.0	NA
25	6	21	M	Filler	127	7	Chicago.	8	431.0	NA
25	6	21	M	Question	127	7	NA	NA	3802.0	1
26	6	21	M	Filler	138	7	While	1	594.0	NA
26	6	21	M	Filler	138	7	Pedro	2	336.0	NA
26	6	21	M	Filler	138	7	was	3	516.0	NA
26	6	21	M	Filler	138	7	swimming	4	351.0	NA
26	6	21	M	Filler	138	7	the	5	300.0	NA
26	6	21	M	Filler	138	7	lifeguard	6	333.0	NA
26	6	21	M	Filler	138	7	sat	7	332.0	NA
26	6	21	M	Filler	138	7	in	8	318.0	NA
26	6	21	M	Filler	138	7	his	9	434.0	NA
26	6	21	M	Filler	138	7	chair.	10	400.0	NA
26	6	21	M	Question	138	7	NA	NA	2999.0	1
27	6	21	M	Filler	68	4	The	1	378.0	NA
27	6	21	M	Filler	68	4	scientist	2	282.0	NA
27	6	21	M	Filler	68	4	published	3	301.0	NA
27	6	21	M	Filler	68	4	a	4	401.0	NA
27	6	21	M	Filler	68	4	paper	5	249.0	NA
27	6	21	M	Filler	68	4	in	6	334.0	NA
27	6	21	M	Filler	68	4	the	7	234.0	NA
27	6	21	M	Filler	68	4	journal	8	267.0	NA
27	6	21	M	Filler	68	4	of	9	300.0	NA
27	6	21	M	Filler	68	4	the	10	299.0	NA
27	6	21	M	Filler	68	4	foreign	11	449.0	NA
27	6	21	M	Filler	68	4	organization.	12	434.0	NA
27	6	21	M	Question	68	4	NA	NA	2669.0	0
28	6	21	M	swets	11	1	The	1	296.0	NA
28	6	21	M	swets	11	1	father	2	281.0	NA
28	6	21	M	swets	11	1	of	3	267.0	NA
28	6	21	M	swets	11	1	the	4	301.0	NA
28	6	21	M	swets	11	1	surgeon	5	333.0	NA
28	6	21	M	swets	11	1	who	6	268.0	NA
28	6	21	M	swets	11	1	made	7	300.0	NA
28	6	21	M	swets	11	1	a	8	400.0	NA
28	6	21	M	swets	11	1	fool	9	382.0	NA
28	6	21	M	swets	11	1	of	10	351.0	NA
28	6	21	M	swets	11	1	himself	11	385.0	NA
28	6	21	M	swets	11	1	at	12	349.0	NA
28	6	21	M	swets	11	1	the	13	383.0	NA
28	6	21	M	swets	11	1	party	14	368.0	NA
28	6	21	M	swets	11	1	was	15	348.0	NA
28	6	21	M	swets	11	1	greatly	16	467.0	NA
28	6	21	M	swets	11	1	embarrassed.	17	667.0	NA
28	6	21	M	Question	11	1	NA	NA	9236.0	1
29	6	21	M	Filler	144	7	The	1	727.0	NA
29	6	21	M	Filler	144	7	apple	2	251.0	NA
29	6	21	M	Filler	144	7	and	3	249.0	NA
29	6	21	M	Filler	144	7	potato	4	2268.0	NA
29	6	21	M	Filler	144	7	went	5	351.0	NA
29	6	21	M	Filler	144	7	rotten	6	316.0	NA
29	6	21	M	Filler	144	7	after	7	302.0	NA
29	6	21	M	Filler	144	7	a	8	298.0	NA
29	6	21	M	Filler	144	7	week.	9	267.0	NA
29	6	21	M	Question	144	7	NA	NA	6218.0	0
30	6	21	M	Filler	130	7	While	1	362.0	NA
30	6	21	M	Filler	130	7	Margo	2	301.0	NA
30	6	21	M	Filler	130	7	bathed	3	265.0	NA
30	6	21	M	Filler	130	7	the	4	217.0	NA
30	6	21	M	Filler	130	7	dog	5	251.0	NA
30	6	21	M	Filler	130	7	barked	6	267.0	NA
30	6	21	M	Filler	130	7	in	7	266.0	NA
30	6	21	M	Filler	130	7	the	8	250.0	NA
30	6	21	M	Filler	130	7	yard.	9	233.0	NA
30	6	21	M	Question	130	7	NA	NA	6334.0	1
31	6	21	M	Filler	42	4	After	1	362.0	NA
31	6	21	M	Filler	42	4	dinner	2	216.0	NA
31	6	21	M	Filler	42	4	the	3	250.0	NA
31	6	21	M	Filler	42	4	children	4	250.0	NA
31	6	21	M	Filler	42	4	gathered	5	233.0	NA
31	6	21	M	Filler	42	4	in	6	251.0	NA
31	6	21	M	Filler	42	4	a	7	234.0	NA
31	6	21	M	Filler	42	4	circle	8	316.0	NA
31	6	21	M	Filler	42	4	to	9	351.0	NA
31	6	21	M	Filler	42	4	listen	10	249.0	NA
31	6	21	M	Filler	42	4	to	11	185.0	NA
31	6	21	M	Filler	42	4	their	12	299.0	NA
31	6	21	M	Filler	42	4	grandmother's	13	301.0	NA
31	6	21	M	Filler	42	4	stories	14	333.0	NA
31	6	21	M	Filler	42	4	about	15	333.0	NA
31	6	21	M	Filler	42	4	the	16	267.0	NA
31	6	21	M	Filler	42	4	good	17	300.0	NA
31	6	21	M	Filler	42	4	old	18	333.0	NA
31	6	21	M	Filler	42	4	days.	19	367.0	NA
31	6	21	M	Question	42	4	NA	NA	1934.0	1
32	6	21	M	Filler	95	5	The	1	328.0	NA
32	6	21	M	Filler	95	5	receptionist	2	267.0	NA
32	6	21	M	Filler	95	5	of	3	315.0	NA
32	6	21	M	Filler	95	5	the	4	269.0	NA
32	6	21	M	Filler	95	5	company	5	232.0	NA
32	6	21	M	Filler	95	5	went	6	266.0	NA
32	6	21	M	Filler	95	5	home	7	284.0	NA
32	6	21	M	Filler	95	5	sick	8	302.0	NA
32	6	21	M	Filler	95	5	before	9	300.0	NA
32	6	21	M	Filler	95	5	moving	10	300.0	NA
32	6	21	M	Filler	95	5	across	11	283.0	NA
32	6	21	M	Filler	95	5	town.	12	234.0	NA
32	6	21	M	Question	95	5	NA	NA	7018.0	1
33	6	21	M	swets	34	3	The	1	329.0	NA
33	6	21	M	swets	34	3	waiter	2	233.0	NA
33	6	21	M	swets	34	3	of	3	234.0	NA
33	6	21	M	swets	34	3	the	4	233.0	NA
33	6	21	M	swets	34	3	woman	5	284.0	NA
33	6	21	M	swets	34	3	who	6	333.0	NA
33	6	21	M	swets	34	3	considered	7	299.0	NA
33	6	21	M	swets	34	3	himself	8	384.0	NA
33	6	21	M	swets	34	3	a	9	300.0	NA
33	6	21	M	swets	34	3	natural	10	465.0	NA
33	6	21	M	swets	34	3	beauty	11	534.0	NA
33	6	21	M	swets	34	3	spilled	12	801.0	NA
33	6	21	M	swets	34	3	the	13	534.0	NA
33	6	21	M	swets	34	3	drinks.	14	467.0	NA
33	6	21	M	Question	34	3	NA	NA	5467.0	0
34	6	21	M	Filler	44	4	The	1	377.0	NA
34	6	21	M	Filler	44	4	solicitor	2	235.0	NA
34	6	21	M	Filler	44	4	wearing	3	266.0	NA
34	6	21	M	Filler	44	4	the	4	201.0	NA
34	6	21	M	Filler	44	4	new	5	233.0	NA
34	6	21	M	Filler	44	4	tuxedo	6	217.0	NA
34	6	21	M	Filler	44	4	bothered	7	282.0	NA
34	6	21	M	Filler	44	4	a	8	219.0	NA
34	6	21	M	Filler	44	4	man	9	350.0	NA
34	6	21	M	Filler	44	4	from	10	333.0	NA
34	6	21	M	Filler	44	4	New	11	316.0	NA
34	6	21	M	Filler	44	4	York.	12	300.0	NA
34	6	21	M	Question	44	4	NA	NA	7286.0	0
35	6	21	M	Filler	128	7	While	1	527.0	NA
35	6	21	M	Filler	128	7	the	2	268.0	NA
35	6	21	M	Filler	128	7	man	3	250.0	NA
35	6	21	M	Filler	128	7	was	4	265.0	NA
35	6	21	M	Filler	128	7	walking	5	235.0	NA
35	6	21	M	Filler	128	7	the	6	283.0	NA
35	6	21	M	Filler	128	7	poodle	7	251.0	NA
35	6	21	M	Filler	128	7	barked	8	301.0	NA
35	6	21	M	Filler	128	7	loudly.	9	266.0	NA
35	6	21	M	Question	128	7	NA	NA	7468.0	1
36	6	21	M	Filler	84	5	While	1	594.0	NA
36	6	21	M	Filler	84	5	talking	2	301.0	NA
36	6	21	M	Filler	84	5	to	3	385.0	NA
36	6	21	M	Filler	84	5	his	4	365.0	NA
36	6	21	M	Filler	84	5	sister	5	368.0	NA
36	6	21	M	Filler	84	5	the	6	299.0	NA
36	6	21	M	Filler	84	5	bishop	7	333.0	NA
36	6	21	M	Filler	84	5	with	8	367.0	NA
36	6	21	M	Filler	84	5	the	9	417.0	NA
36	6	21	M	Filler	84	5	funny	10	383.0	NA
36	6	21	M	Filler	84	5	eyebrows	11	602.0	NA
36	6	21	M	Filler	84	5	advocated	12	532.0	NA
36	6	21	M	Filler	84	5	strange	13	417.0	NA
36	6	21	M	Filler	84	5	beliefs.	14	1768.0	NA
36	6	21	M	Question	84	5	NA	NA	2867.0	1
37	6	21	M	swets	25	3	The	1	660.0	NA
37	6	21	M	swets	25	3	grandfather	2	401.0	NA
37	6	21	M	swets	25	3	of	3	399.0	NA
37	6	21	M	swets	25	3	the	4	353.0	NA
37	6	21	M	swets	25	3	stewardess	5	365.0	NA
37	6	21	M	swets	25	3	who	6	352.0	NA
37	6	21	M	swets	25	3	treated	7	333.0	NA
37	6	21	M	swets	25	3	himself	8	366.0	NA
37	6	21	M	swets	25	3	to	9	316.0	NA
37	6	21	M	swets	25	3	an	10	368.0	NA
37	6	21	M	swets	25	3	ice-cream	11	465.0	NA
37	6	21	M	swets	25	3	cone	12	351.0	NA
37	6	21	M	swets	25	3	was	13	367.0	NA
37	6	21	M	swets	25	3	waiting	14	384.0	NA
37	6	21	M	swets	25	3	at	15	350.0	NA
37	6	21	M	swets	25	3	home.	16	433.0	NA
37	6	21	M	Question	25	3	NA	NA	3135.0	1
38	6	21	M	Filler	79	5	Although	1	427.0	NA
38	6	21	M	Filler	79	5	the	2	285.0	NA
38	6	21	M	Filler	79	5	mechanic	3	249.0	NA
38	6	21	M	Filler	79	5	said	4	235.0	NA
38	6	21	M	Filler	79	5	the	5	266.0	NA
38	6	21	M	Filler	79	5	job	6	234.0	NA
38	6	21	M	Filler	79	5	would	7	399.0	NA
38	6	21	M	Filler	79	5	take	8	333.0	NA
38	6	21	M	Filler	79	5	four	9	234.0	NA
38	6	21	M	Filler	79	5	days	10	216.0	NA
38	6	21	M	Filler	79	5	the	11	316.0	NA
38	6	21	M	Filler	79	5	client	12	285.0	NA
38	6	21	M	Filler	79	5	didn't	13	334.0	NA
38	6	21	M	Filler	79	5	receive	14	400.0	NA
38	6	21	M	Filler	79	5	her	15	350.0	NA
38	6	21	M	Filler	79	5	car	16	734.0	NA
38	6	21	M	Filler	79	5	for	17	500.0	NA
38	6	21	M	Filler	79	5	six	18	432.0	NA
38	6	21	M	Filler	79	5	weeks.	19	1300.0	NA
38	6	21	M	Question	79	5	NA	NA	1834.0	1
39	6	21	M	Filler	94	5	After	1	629.0	NA
39	6	21	M	Filler	94	5	months	2	399.0	NA
39	6	21	M	Filler	94	5	of	3	217.0	NA
39	6	21	M	Filler	94	5	preparation	4	266.0	NA
39	6	21	M	Filler	94	5	the	5	251.0	NA
39	6	21	M	Filler	94	5	ballerina	6	300.0	NA
39	6	21	M	Filler	94	5	was	7	284.0	NA
39	6	21	M	Filler	94	5	getting	8	284.0	NA
39	6	21	M	Filler	94	5	ready	9	299.0	NA
39	6	21	M	Filler	94	5	for	10	250.0	NA
39	6	21	M	Filler	94	5	opening	11	283.0	NA
39	6	21	M	Filler	94	5	night.	12	300.0	NA
39	6	21	M	Question	94	5	NA	NA	4585.0	1
40	6	21	M	Filler	52	4	The	1	427.0	NA
40	6	21	M	Filler	52	4	students	2	268.0	NA
40	6	21	M	Filler	52	4	were	3	266.0	NA
40	6	21	M	Filler	52	4	bored	4	234.0	NA
40	6	21	M	Filler	52	4	by	5	266.0	NA
40	6	21	M	Filler	52	4	the	6	201.0	NA
40	6	21	M	Filler	52	4	teacher.	7	266.0	NA
40	6	21	M	Question	52	4	NA	NA	3967.0	1
41	6	21	M	swets	2	1	The	1	444.0	NA
41	6	21	M	swets	2	1	uncle	2	301.0	NA
41	6	21	M	swets	2	1	of	3	265.0	NA
41	6	21	M	swets	2	1	the	4	235.0	NA
41	6	21	M	swets	2	1	fireman	5	282.0	NA
41	6	21	M	swets	2	1	who	6	286.0	NA
41	6	21	M	swets	2	1	criticized	7	265.0	NA
41	6	21	M	swets	2	1	himself	8	300.0	NA
41	6	21	M	swets	2	1	far	9	284.0	NA
41	6	21	M	swets	2	1	too	10	283.0	NA
41	6	21	M	swets	2	1	often	11	767.0	NA
41	6	21	M	swets	2	1	was	12	417.0	NA
41	6	21	M	swets	2	1	painting	13	549.0	NA
41	6	21	M	swets	2	1	the	14	385.0	NA
41	6	21	M	swets	2	1	bedroom.	15	366.0	NA
41	6	21	M	Question	2	1	NA	NA	9519.0	1
42	6	21	M	Filler	67	4	The	1	295.0	NA
42	6	21	M	Filler	67	4	restaurant	2	167.0	NA
42	6	21	M	Filler	67	4	was	3	183.0	NA
42	6	21	M	Filler	67	4	famous	4	266.0	NA
42	6	21	M	Filler	67	4	for	5	250.0	NA
42	6	21	M	Filler	67	4	its	6	234.0	NA
42	6	21	M	Filler	67	4	French	7	266.0	NA
42	6	21	M	Filler	67	4	pastries	8	218.0	NA
42	6	21	M	Filler	67	4	and	9	299.0	NA
42	6	21	M	Filler	67	4	fine	10	217.0	NA
42	6	21	M	Filler	67	4	wines.	11	301.0	NA
42	6	21	M	Question	67	4	NA	NA	2566.0	1
43	6	21	M	Filler	40	4	The	1	612.0	NA
43	6	21	M	Filler	40	4	boy's	2	468.0	NA
43	6	21	M	Filler	40	4	mother	3	300.0	NA
43	6	21	M	Filler	40	4	was	4	400.0	NA
43	6	21	M	Filler	40	4	very	5	233.0	NA
43	6	21	M	Filler	40	4	happy	6	300.0	NA
43	6	21	M	Filler	40	4	to	7	301.0	NA
43	6	21	M	Filler	40	4	see	8	399.0	NA
43	6	21	M	Filler	40	4	good	9	801.0	NA
43	6	21	M	Filler	40	4	grades	10	366.0	NA
43	6	21	M	Filler	40	4	on	11	616.0	NA
43	6	21	M	Filler	40	4	his	12	401.0	NA
43	6	21	M	Filler	40	4	report	13	301.0	NA
43	6	21	M	Filler	40	4	card.	14	366.0	NA
43	6	21	M	Question	40	4	NA	NA	2134.0	1
44	6	21	M	Filler	112	6	As	1	446.0	NA
44	6	21	M	Filler	112	6	the	2	282.0	NA
44	6	21	M	Filler	112	6	dog	3	249.0	NA
44	6	21	M	Filler	112	6	was	4	235.0	NA
44	6	21	M	Filler	112	6	calming	5	283.0	NA
44	6	21	M	Filler	112	6	down	6	267.0	NA
44	6	21	M	Filler	112	6	the	7	217.0	NA
44	6	21	M	Filler	112	6	puppy	8	250.0	NA
44	6	21	M	Filler	112	6	slept	9	316.0	NA
44	6	21	M	Filler	112	6	in	10	267.0	NA
44	6	21	M	Filler	112	6	the	11	300.0	NA
44	6	21	M	Filler	112	6	cage.	12	284.0	NA
44	6	21	M	Question	112	6	NA	NA	2166.0	1
45	6	21	M	Filler	142	7	The	1	395.0	NA
45	6	21	M	Filler	142	7	cats	2	284.0	NA
45	6	21	M	Filler	142	7	and	3	282.0	NA
45	6	21	M	Filler	142	7	dogs	4	185.0	NA
45	6	21	M	Filler	142	7	glared	5	282.0	NA
45	6	21	M	Filler	142	7	at	6	251.0	NA
45	6	21	M	Filler	142	7	each	7	250.0	NA
45	6	21	M	Filler	142	7	other	8	218.0	NA
45	6	21	M	Filler	142	7	warily.	9	233.0	NA
45	6	21	M	Question	142	7	NA	NA	1599.0	1
46	6	21	M	Filler	139	7	Laurie	1	327.0	NA
46	6	21	M	Filler	139	7	asked	2	252.0	NA
46	6	21	M	Filler	139	7	which	3	234.0	NA
46	6	21	M	Filler	139	7	truck	4	266.0	NA
46	6	21	M	Filler	139	7	the	5	251.0	NA
46	6	21	M	Filler	139	7	dealership	6	281.0	NA
46	6	21	M	Filler	139	7	sold	7	269.0	NA
46	6	21	M	Filler	139	7	but	8	249.0	NA
46	6	21	M	Filler	139	7	didn't	9	267.0	NA
46	6	21	M	Filler	139	7	paint	10	282.0	NA
46	6	21	M	Filler	139	7	completely.	11	267.0	NA
46	6	21	M	Question	139	7	NA	NA	5934.0	1
47	6	21	M	swets	23	1	The	1	446.0	NA
47	6	21	M	swets	23	1	mother	2	265.0	NA
47	6	21	M	swets	23	1	of	3	234.0	NA
47	6	21	M	swets	23	1	the	4	234.0	NA
47	6	21	M	swets	23	1	ballerina	5	266.0	NA
47	6	21	M	swets	23	1	who	6	234.0	NA
47	6	21	M	swets	23	1	found	7	265.0	NA
47	6	21	M	swets	23	1	herself	8	186.0	NA
47	6	21	M	swets	23	1	in	9	265.0	NA
47	6	21	M	swets	23	1	a	10	234.0	NA
47	6	21	M	swets	23	1	lot	11	249.0	NA
47	6	21	M	swets	23	1	of	12	236.0	NA
47	6	21	M	swets	23	1	trouble	13	299.0	NA
47	6	21	M	swets	23	1	phoned	14	282.0	NA
47	6	21	M	swets	23	1	the	15	285.0	NA
47	6	21	M	swets	23	1	police.	16	333.0	NA
47	6	21	M	Question	23	1	NA	NA	1832.0	1
48	6	21	M	Filler	56	4	The	1	361.0	NA
48	6	21	M	Filler	56	4	actor	2	251.0	NA
48	6	21	M	Filler	56	4	said	3	232.0	NA
48	6	21	M	Filler	56	4	the	4	234.0	NA
48	6	21	M	Filler	56	4	audiences	5	201.0	NA
48	6	21	M	Filler	56	4	believed	6	233.0	NA
48	6	21	M	Filler	56	4	the	7	199.0	NA
48	6	21	M	Filler	56	4	nasty	8	218.0	NA
48	6	21	M	Filler	56	4	remarks	9	232.0	NA
48	6	21	M	Filler	56	4	made	10	217.0	NA
48	6	21	M	Filler	56	4	by	11	250.0	NA
48	6	21	M	Filler	56	4	the	12	217.0	NA
48	6	21	M	Filler	56	4	film	13	266.0	NA
48	6	21	M	Filler	56	4	critic.	14	234.0	NA
48	6	21	M	Question	56	4	NA	NA	2933.0	1
49	6	21	M	Filler	53	4	The	1	295.0	NA
49	6	21	M	Filler	53	4	clay	2	300.0	NA
49	6	21	M	Filler	53	4	pot	3	1852.0	NA
49	6	21	M	Filler	53	4	was	4	466.0	NA
49	6	21	M	Filler	53	4	full	5	301.0	NA
49	6	21	M	Filler	53	4	of	6	333.0	NA
49	6	21	M	Filler	53	4	gold	7	299.0	NA
49	6	21	M	Filler	53	4	coins	8	317.0	NA
49	6	21	M	Filler	53	4	and	9	234.0	NA
49	6	21	M	Filler	53	4	the	10	234.0	NA
49	6	21	M	Filler	53	4	thief	11	282.0	NA
49	6	21	M	Filler	53	4	knew	12	218.0	NA
49	6	21	M	Filler	53	4	he	13	267.0	NA
49	6	21	M	Filler	53	4	had	14	266.0	NA
49	6	21	M	Filler	53	4	finally	15	217.0	NA
49	6	21	M	Filler	53	4	hit	16	283.0	NA
49	6	21	M	Filler	53	4	the	17	251.0	NA
49	6	21	M	Filler	53	4	jackpot.	18	900.0	NA
49	6	21	M	Question	53	4	NA	NA	4285.0	1
50	6	21	M	Filler	61	4	The	1	363.0	NA
50	6	21	M	Filler	61	4	lemon	2	283.0	NA
50	6	21	M	Filler	61	4	squirted	3	200.0	NA
50	6	21	M	Filler	61	4	into	4	183.0	NA
50	6	21	M	Filler	61	4	the	5	184.0	NA
50	6	21	M	Filler	61	4	debutante's	6	167.0	NA
50	6	21	M	Filler	61	4	eye	7	383.0	NA
50	6	21	M	Filler	61	4	as	8	368.0	NA
50	6	21	M	Filler	61	4	she	9	464.0	NA
50	6	21	M	Filler	61	4	tried	10	651.0	NA
50	6	21	M	Filler	61	4	to	11	400.0	NA
50	6	21	M	Filler	61	4	impress	12	300.0	NA
50	6	21	M	Filler	61	4	her	13	317.0	NA
50	6	21	M	Filler	61	4	mother's	14	733.0	NA
50	6	21	M	Filler	61	4	society	15	550.0	NA
50	6	21	M	Filler	61	4	friends.	16	1569.0	NA
50	6	21	M	Question	61	4	NA	NA	1732.0	1
51	6	21	M	swets	35	1	The	1	1144.0	NA
51	6	21	M	swets	35	1	landlord	2	734.0	NA
51	6	21	M	swets	35	1	of	3	651.0	NA
51	6	21	M	swets	35	1	the	4	482.0	NA
51	6	21	M	swets	35	1	businessman	5	400.0	NA
51	6	21	M	swets	35	1	who	6	985.0	NA
51	6	21	M	swets	35	1	had	7	484.0	NA
51	6	21	M	swets	35	1	locked	8	416.0	NA
51	6	21	M	swets	35	1	himself	9	401.0	NA
51	6	21	M	swets	35	1	in	10	399.0	NA
51	6	21	M	swets	35	1	the	11	350.0	NA
51	6	21	M	swets	35	1	office	12	300.0	NA
51	6	21	M	swets	35	1	received	13	434.0	NA
51	6	21	M	swets	35	1	a	14	368.0	NA
51	6	21	M	swets	35	1	phone	15	350.0	NA
51	6	21	M	swets	35	1	call.	16	367.0	NA
51	6	21	M	Question	35	1	NA	NA	5066.0	1
52	6	21	M	Filler	55	4	The	1	413.0	NA
52	6	21	M	Filler	55	4	people	2	433.0	NA
52	6	21	M	Filler	55	4	certainly	3	433.0	NA
52	6	21	M	Filler	55	4	admired	4	433.0	NA
52	6	21	M	Filler	55	4	the	5	235.0	NA
52	6	21	M	Filler	55	4	wife	6	333.0	NA
52	6	21	M	Filler	55	4	of	7	300.0	NA
52	6	21	M	Filler	55	4	the	8	350.0	NA
52	6	21	M	Filler	55	4	janitor	9	366.0	NA
52	6	21	M	Filler	55	4	because	10	301.0	NA
52	6	21	M	Filler	55	4	she	11	300.0	NA
52	6	21	M	Filler	55	4	educated	12	300.0	NA
52	6	21	M	Filler	55	4	herself	13	334.0	NA
52	6	21	M	Filler	55	4	at	14	332.0	NA
52	6	21	M	Filler	55	4	night.	15	333.0	NA
52	6	21	M	Question	55	4	NA	NA	2901.0	1
53	6	21	M	Filler	50	4	The	1	495.0	NA
53	6	21	M	Filler	50	4	new	2	367.0	NA
53	6	21	M	Filler	50	4	language	3	433.0	NA
53	6	21	M	Filler	50	4	requirement	4	366.0	NA
53	6	21	M	Filler	50	4	made	5	269.0	NA
53	6	21	M	Filler	50	4	all	6	432.0	NA
53	6	21	M	Filler	50	4	the	7	401.0	NA
53	6	21	M	Filler	50	4	students	8	500.0	NA
53	6	21	M	Filler	50	4	say	9	250.0	NA
53	6	21	M	Filler	50	4	bad	10	366.0	NA
53	6	21	M	Filler	50	4	things	11	317.0	NA
53	6	21	M	Filler	50	4	about	12	368.0	NA
53	6	21	M	Filler	50	4	the	13	332.0	NA
53	6	21	M	Filler	50	4	dean	14	417.0	NA
53	6	21	M	Filler	50	4	of	15	418.0	NA
53	6	21	M	Filler	50	4	the	16	333.0	NA
53	6	21	M	Filler	50	4	college.	17	1166.0	NA
53	6	21	M	Question	50	4	NA	NA	3318.0	1
54	6	21	M	swets	7	3	The	1	529.0	NA
54	6	21	M	swets	7	3	nephew	2	500.0	NA
54	6	21	M	swets	7	3	of	3	317.0	NA
54	6	21	M	swets	7	3	the	4	233.0	NA
54	6	21	M	swets	7	3	waitress	5	283.0	NA
54	6	21	M	swets	7	3	who	6	201.0	NA
54	6	21	M	swets	7	3	hurt	7	233.0	NA
54	6	21	M	swets	7	3	himself	8	301.0	NA
54	6	21	M	swets	7	3	on	9	283.0	NA
54	6	21	M	swets	7	3	the	10	1316.0	NA
54	6	21	M	swets	7	3	bicycle	11	867.0	NA
54	6	21	M	swets	7	3	was	12	466.0	NA
54	6	21	M	swets	7	3	angry	13	434.0	NA
54	6	21	M	swets	7	3	about	14	335.0	NA
54	6	21	M	swets	7	3	the	15	317.0	NA
54	6	21	M	swets	7	3	incident.	16	1065.0	NA
54	6	21	M	Question	7	3	NA	NA	2300.0	1
55	6	21	M	Filler	87	5	The	1	745.0	NA
55	6	21	M	Filler	87	5	car	2	318.0	NA
55	6	21	M	Filler	87	5	chased	3	366.0	NA
55	6	21	M	Filler	87	5	the	4	1051.0	NA
55	6	21	M	Filler	87	5	robber	5	400.0	NA
55	6	21	M	Filler	87	5	of	6	381.0	NA
55	6	21	M	Filler	87	5	the	7	236.0	NA
55	6	21	M	Filler	87	5	bank	8	284.0	NA
55	6	21	M	Filler	87	5	into	9	298.0	NA
55	6	21	M	Filler	87	5	a	10	269.0	NA
55	6	21	M	Filler	87	5	narrow	11	282.0	NA
55	6	21	M	Filler	87	5	alley.	12	300.0	NA
55	6	21	M	Question	87	5	NA	NA	6084.0	0
56	6	21	M	swets	13	3	The	1	397.0	NA
56	6	21	M	swets	13	3	great-aunt	2	265.0	NA
56	6	21	M	swets	13	3	of	3	218.0	NA
56	6	21	M	swets	13	3	the	4	184.0	NA
56	6	21	M	swets	13	3	policeman	5	232.0	NA
56	6	21	M	swets	13	3	who	6	185.0	NA
56	6	21	M	swets	13	3	treated	7	232.0	NA
56	6	21	M	swets	13	3	herself	8	234.0	NA
56	6	21	M	swets	13	3	after	9	233.0	NA
56	6	21	M	swets	13	3	the	10	249.0	NA
56	6	21	M	swets	13	3	accident	11	267.0	NA
56	6	21	M	swets	13	3	was	12	234.0	NA
56	6	21	M	swets	13	3	watching	13	267.0	NA
56	6	21	M	swets	13	3	the	14	234.0	NA
56	6	21	M	swets	13	3	news.	15	266.0	NA
56	6	21	M	Question	13	3	NA	NA	4918.0	1
57	6	21	M	Filler	39	4	The	1	328.0	NA
57	6	21	M	Filler	39	4	overweight	2	233.0	NA
57	6	21	M	Filler	39	4	aunt	3	232.0	NA
57	6	21	M	Filler	39	4	decided	4	234.0	NA
57	6	21	M	Filler	39	4	to	5	200.0	NA
57	6	21	M	Filler	39	4	make	6	217.0	NA
57	6	21	M	Filler	39	4	cookies	7	201.0	NA
57	6	21	M	Filler	39	4	and	8	249.0	NA
57	6	21	M	Filler	39	4	cupcakes	9	200.0	NA
57	6	21	M	Filler	39	4	for	10	218.0	NA
57	6	21	M	Filler	39	4	the	11	248.0	NA
57	6	21	M	Filler	39	4	dinner	12	219.0	NA
57	6	21	M	Filler	39	4	party.	13	267.0	NA
57	6	21	M	Question	39	4	NA	NA	2899.0	1
58	6	21	M	Filler	58	4	The	1	361.0	NA
58	6	21	M	Filler	58	4	white	2	235.0	NA
58	6	21	M	Filler	58	4	dog	3	167.0	NA
58	6	21	M	Filler	58	4	bit	4	233.0	NA
58	6	21	M	Filler	58	4	the	5	150.0	NA
58	6	21	M	Filler	58	4	ankle	6	232.0	NA
58	6	21	M	Filler	58	4	of	7	218.0	NA
58	6	21	M	Filler	58	4	the	8	216.0	NA
58	6	21	M	Filler	58	4	child.	9	201.0	NA
58	6	21	M	Question	58	4	NA	NA	1799.0	1
59	6	21	M	Filler	76	5	After	1	278.0	NA
59	6	21	M	Filler	76	5	fifty	2	299.0	NA
59	6	21	M	Filler	76	5	years	3	234.0	NA
59	6	21	M	Filler	76	5	of	4	216.0	NA
59	6	21	M	Filler	76	5	marriage	5	234.0	NA
59	6	21	M	Filler	76	5	the	6	217.0	NA
59	6	21	M	Filler	76	5	old	7	249.0	NA
59	6	21	M	Filler	76	5	couple	8	234.0	NA
59	6	21	M	Filler	76	5	still	9	300.0	NA
59	6	21	M	Filler	76	5	felt	10	200.0	NA
59	6	21	M	Filler	76	5	the	11	251.0	NA
59	6	21	M	Filler	76	5	same	12	266.0	NA
59	6	21	M	Filler	76	5	about	13	266.0	NA
59	6	21	M	Filler	76	5	each	14	251.0	NA
59	6	21	M	Filler	76	5	other	15	267.0	NA
59	6	21	M	Filler	76	5	as	16	399.0	NA
59	6	21	M	Filler	76	5	they	17	300.0	NA
59	6	21	M	Filler	76	5	had	18	267.0	NA
59	6	21	M	Filler	76	5	on	19	251.0	NA
59	6	21	M	Filler	76	5	their	20	267.0	NA
59	6	21	M	Filler	76	5	wedding	21	299.0	NA
59	6	21	M	Filler	76	5	day.	22	266.0	NA
59	6	21	M	Question	76	5	NA	NA	2068.0	1
60	6	21	M	swets	33	2	The	1	344.0	NA
60	6	21	M	swets	33	2	maid	2	300.0	NA
60	6	21	M	swets	33	2	of	3	234.0	NA
60	6	21	M	swets	33	2	the	4	201.0	NA
60	6	21	M	swets	33	2	actor	5	200.0	NA
60	6	21	M	swets	33	2	who	6	201.0	NA
60	6	21	M	swets	33	2	did	7	249.0	NA
60	6	21	M	swets	33	2	not	8	234.0	NA
60	6	21	M	swets	33	2	like	9	233.0	NA
60	6	21	M	swets	33	2	himself	10	233.0	NA
60	6	21	M	swets	33	2	very	11	301.0	NA
60	6	21	M	swets	33	2	much	12	300.0	NA
60	6	21	M	swets	33	2	caught	13	367.0	NA
60	6	21	M	swets	33	2	the	14	283.0	NA
60	6	21	M	swets	33	2	armed	15	267.0	NA
60	6	21	M	swets	33	2	robber.	16	299.0	NA
60	6	21	M	Question	33	2	NA	NA	2767.0	1
61	6	21	M	Filler	131	7	While	1	662.0	NA
61	6	21	M	Filler	131	7	Jamie	2	299.0	NA
61	6	21	M	Filler	131	7	dried	3	200.0	NA
61	6	21	M	Filler	131	7	off	4	233.0	NA
61	6	21	M	Filler	131	7	the	5	234.0	NA
61	6	21	M	Filler	131	7	table	6	200.0	NA
61	6	21	M	Filler	131	7	his	7	201.0	NA
61	6	21	M	Filler	131	7	sunglasses	8	232.0	NA
61	6	21	M	Filler	131	7	disappeared.	9	267.0	NA
61	6	21	M	Question	131	7	NA	NA	2503.0	1
62	6	21	M	Filler	129	7	While	1	562.0	NA
62	6	21	M	Filler	129	7	Scott	2	299.0	NA
62	6	21	M	Filler	129	7	vacuumed	3	368.0	NA
62	6	21	M	Filler	129	7	the	4	266.0	NA
62	6	21	M	Filler	129	7	carpet	5	234.0	NA
62	6	21	M	Filler	129	7	the	6	217.0	NA
62	6	21	M	Filler	129	7	drapes	7	300.0	NA
62	6	21	M	Filler	129	7	flapped	8	234.0	NA
62	6	21	M	Filler	129	7	in	9	267.0	NA
62	6	21	M	Filler	129	7	the	10	283.0	NA
62	6	21	M	Filler	129	7	breeze.	11	333.0	NA
62	6	21	M	Question	129	7	NA	NA	2500.0	1
63	6	21	M	swets	31	3	The	1	961.0	NA
63	6	21	M	swets	31	3	aunt	2	301.0	NA
63	6	21	M	swets	31	3	of	3	283.0	NA
63	6	21	M	swets	31	3	the	4	200.0	NA
63	6	21	M	swets	31	3	milkman	5	266.0	NA
63	6	21	M	swets	31	3	who	6	234.0	NA
63	6	21	M	swets	31	3	had	7	267.0	NA
63	6	21	M	swets	31	3	to	8	283.0	NA
63	6	21	M	swets	31	3	support	9	267.0	NA
63	6	21	M	swets	31	3	herself	10	235.0	NA
63	6	21	M	swets	31	3	with	11	266.0	NA
63	6	21	M	swets	31	3	a	12	1017.0	NA
63	6	21	M	swets	31	3	low	13	2283.0	NA
63	6	21	M	swets	31	3	income	14	401.0	NA
63	6	21	M	swets	31	3	liked	15	366.0	NA
63	6	21	M	swets	31	3	to	16	267.0	NA
63	6	21	M	swets	31	3	fish.	17	333.0	NA
63	6	21	M	Question	31	3	NA	NA	4335.0	1
64	6	21	M	Filler	62	4	After	1	795.0	NA
64	6	21	M	Filler	62	4	much	2	899.0	NA
64	6	21	M	Filler	62	4	deliberation	3	468.0	NA
64	6	21	M	Filler	62	4	the	4	317.0	NA
64	6	21	M	Filler	62	4	jury	5	267.0	NA
64	6	21	M	Filler	62	4	found	6	266.0	NA
64	6	21	M	Filler	62	4	the	7	217.0	NA
64	6	21	M	Filler	62	4	defendant	8	201.0	NA
64	6	21	M	Filler	62	4	not	9	267.0	NA
64	6	21	M	Filler	62	4	guilty.	10	267.0	NA
64	6	21	M	Question	62	4	NA	NA	7267.0	1
65	6	21	M	Filler	59	4	The	1	429.0	NA
65	6	21	M	Filler	59	4	conductor	2	266.0	NA
65	6	21	M	Filler	59	4	of	3	265.0	NA
65	6	21	M	Filler	59	4	the	4	185.0	NA
65	6	21	M	Filler	59	4	orchestra	5	199.0	NA
65	6	21	M	Filler	59	4	with	6	266.0	NA
65	6	21	M	Filler	59	4	the	7	217.0	NA
65	6	21	M	Filler	59	4	bald	8	266.0	NA
65	6	21	M	Filler	59	4	head	9	267.0	NA
65	6	21	M	Filler	59	4	plays	10	234.0	NA
65	6	21	M	Filler	59	4	excellently.	11	300.0	NA
65	6	21	M	Question	59	4	NA	NA	3068.0	1
66	6	21	M	swets	29	1	The	1	662.0	NA
66	6	21	M	swets	29	1	brother	2	234.0	NA
66	6	21	M	swets	29	1	of	3	334.0	NA
66	6	21	M	swets	29	1	the	4	250.0	NA
66	6	21	M	swets	29	1	colonel	5	399.0	NA
66	6	21	M	swets	29	1	who	6	418.0	NA
66	6	21	M	swets	29	1	enjoyed	7	299.0	NA
66	6	21	M	swets	29	1	himself	8	267.0	NA
66	6	21	M	swets	29	1	a	9	351.0	NA
66	6	21	M	swets	29	1	lot	10	433.0	NA
66	6	21	M	swets	29	1	was	11	332.0	NA
66	6	21	M	swets	29	1	out	12	268.0	NA
66	6	21	M	swets	29	1	on	13	300.0	NA
66	6	21	M	swets	29	1	the	14	301.0	NA
66	6	21	M	swets	29	1	balcony.	15	534.0	NA
66	6	21	M	Question	29	1	NA	NA	2999.0	1
67	6	21	M	Filler	118	6	As	1	362.0	NA
67	6	21	M	Filler	118	6	the	2	133.0	NA
67	6	21	M	Filler	118	6	dog	3	101.0	NA
67	6	21	M	Filler	118	6	ran	4	734.0	NA
67	6	21	M	Filler	118	6	Wanda	5	1099.0	NA
67	6	21	M	Filler	118	6	watched	6	335.0	NA
67	6	21	M	Filler	118	6	from	7	300.0	NA
67	6	21	M	Filler	118	6	the	8	334.0	NA
67	6	21	M	Filler	118	6	window.	9	266.0	NA
67	6	21	M	Question	118	6	NA	NA	2533.0	1
68	6	21	M	Filler	43	4	The	1	330.0	NA
68	6	21	M	Filler	43	4	movie	2	233.0	NA
68	6	21	M	Filler	43	4	director	3	200.0	NA
68	6	21	M	Filler	43	4	refused	4	234.0	NA
68	6	21	M	Filler	43	4	to	5	282.0	NA
68	6	21	M	Filler	43	4	work	6	201.0	NA
68	6	21	M	Filler	43	4	with	7	231.0	NA
68	6	21	M	Filler	43	4	the	8	218.0	NA
68	6	21	M	Filler	43	4	producer	9	234.0	NA
68	6	21	M	Filler	43	4	again	10	232.0	NA
68	6	21	M	Filler	43	4	after	11	235.0	NA
68	6	21	M	Filler	43	4	winning	12	233.0	NA
68	6	21	M	Filler	43	4	the	13	216.0	NA
68	6	21	M	Filler	43	4	grand	14	301.0	NA
68	6	21	M	Filler	43	4	prize.	15	332.0	NA
68	6	21	M	Question	43	4	NA	NA	1818.0	1
69	6	21	M	Filler	70	4	The	1	494.0	NA
69	6	21	M	Filler	70	4	warden	2	234.0	NA
69	6	21	M	Filler	70	4	was	3	167.0	NA
69	6	21	M	Filler	70	4	dissatisfied	4	199.0	NA
69	6	21	M	Filler	70	4	with	5	233.0	NA
69	6	21	M	Filler	70	4	the	6	233.0	NA
69	6	21	M	Filler	70	4	decision	7	270.0	NA
69	6	21	M	Filler	70	4	of	8	232.0	NA
69	6	21	M	Filler	70	4	the	9	184.0	NA
69	6	21	M	Filler	70	4	parole	10	266.0	NA
69	6	21	M	Filler	70	4	committee	11	201.0	NA
69	6	21	M	Filler	70	4	to	12	250.0	NA
69	6	21	M	Filler	70	4	pardon	13	234.0	NA
69	6	21	M	Filler	70	4	the	14	183.0	NA
69	6	21	M	Filler	70	4	prisoner.	15	233.0	NA
69	6	21	M	Question	70	4	NA	NA	1883.0	1
70	6	21	M	Filler	116	6	As	1	261.0	NA
70	6	21	M	Filler	116	6	the	2	218.0	NA
70	6	21	M	Filler	116	6	survivors	3	232.0	NA
70	6	21	M	Filler	116	6	were	4	183.0	NA
70	6	21	M	Filler	116	6	embracing	5	233.0	NA
70	6	21	M	Filler	116	6	the	6	201.0	NA
70	6	21	M	Filler	116	6	firefighter	7	201.0	NA
70	6	21	M	Filler	116	6	coughed	8	267.0	NA
70	6	21	M	Filler	116	6	violently.	9	299.0	NA
70	6	21	M	Question	116	6	NA	NA	2134.0	1
71	6	21	M	swets	8	1	The	1	262.0	NA
71	6	21	M	swets	8	1	sister	2	234.0	NA
71	6	21	M	swets	8	1	of	3	200.0	NA
71	6	21	M	swets	8	1	the	4	182.0	NA
71	6	21	M	swets	8	1	seamstress	5	335.0	NA
71	6	21	M	swets	8	1	who	6	198.0	NA
71	6	21	M	swets	8	1	entertained	7	169.0	NA
71	6	21	M	swets	8	1	herself	8	199.0	NA
71	6	21	M	swets	8	1	most	9	233.0	NA
71	6	21	M	swets	8	1	evenings	10	168.0	NA
71	6	21	M	swets	8	1	was	11	200.0	NA
71	6	21	M	swets	8	1	reading	12	233.0	NA
71	6	21	M	swets	8	1	a	13	299.0	NA
71	6	21	M	swets	8	1	book.	14	267.0	NA
71	6	21	M	Question	8	1	NA	NA	4935.0	1
72	6	21	M	Filler	100	5	There	1	278.0	NA
72	6	21	M	Filler	100	5	was	2	199.0	NA
72	6	21	M	Filler	100	5	a	3	151.0	NA
72	6	21	M	Filler	100	5	large	4	134.0	NA
72	6	21	M	Filler	100	5	sale	5	134.0	NA
72	6	21	M	Filler	100	5	on	6	233.0	NA
72	6	21	M	Filler	100	5	stationary	7	234.0	NA
72	6	21	M	Filler	100	5	and	8	267.0	NA
72	6	21	M	Filler	100	5	office	9	233.0	NA
72	6	21	M	Filler	100	5	supplies	10	266.0	NA
72	6	21	M	Filler	100	5	at	11	234.0	NA
72	6	21	M	Filler	100	5	the	12	283.0	NA
72	6	21	M	Filler	100	5	student	13	266.0	NA
72	6	21	M	Filler	100	5	bookstore.	14	333.0	NA
72	6	21	M	Question	100	5	NA	NA	2552.0	1
73	6	21	M	Filler	114	6	While	1	494.0	NA
73	6	21	M	Filler	114	6	the	2	169.0	NA
73	6	21	M	Filler	114	6	winners	3	266.0	NA
73	6	21	M	Filler	114	6	were	4	632.0	NA
73	6	21	M	Filler	114	6	kissing	5	336.0	NA
73	6	21	M	Filler	114	6	the	6	234.0	NA
73	6	21	M	Filler	114	6	crowd	7	248.0	NA
73	6	21	M	Filler	114	6	cheered	8	233.0	NA
73	6	21	M	Filler	114	6	wildly.	9	235.0	NA
73	6	21	M	Question	114	6	NA	NA	1401.0	1
74	6	21	M	Filler	97	5	The	1	278.0	NA
74	6	21	M	Filler	97	5	tall	2	267.0	NA
74	6	21	M	Filler	97	5	man	3	169.0	NA
74	6	21	M	Filler	97	5	laughed	4	232.0	NA
74	6	21	M	Filler	97	5	at	5	168.0	NA
74	6	21	M	Filler	97	5	the	6	199.0	NA
74	6	21	M	Filler	97	5	clumsy	7	201.0	NA
74	6	21	M	Filler	97	5	child	8	231.0	NA
74	6	21	M	Filler	97	5	who	9	201.0	NA
74	6	21	M	Filler	97	5	spilled	10	233.0	NA
74	6	21	M	Filler	97	5	the	11	183.0	NA
74	6	21	M	Filler	97	5	milk	12	201.0	NA
74	6	21	M	Filler	97	5	on	13	167.0	NA
74	6	21	M	Filler	97	5	himself.	14	233.0	NA
74	6	21	M	Question	97	5	NA	NA	2550.0	1
75	6	21	M	Filler	41	4	While	1	261.0	NA
75	6	21	M	Filler	41	4	the	2	251.0	NA
75	6	21	M	Filler	41	4	babysitter	3	232.0	NA
75	6	21	M	Filler	41	4	watched	4	234.0	NA
75	6	21	M	Filler	41	4	soap	5	233.0	NA
75	6	21	M	Filler	41	4	operas	6	233.0	NA
75	6	21	M	Filler	41	4	the	7	236.0	NA
75	6	21	M	Filler	41	4	child	8	234.0	NA
75	6	21	M	Filler	41	4	poured	9	200.0	NA
75	6	21	M	Filler	41	4	honey	10	231.0	NA
75	6	21	M	Filler	41	4	all	11	234.0	NA
75	6	21	M	Filler	41	4	over	12	235.0	NA
75	6	21	M	Filler	41	4	the	13	250.0	NA
75	6	21	M	Filler	41	4	floor.	14	298.0	NA
75	6	21	M	Question	41	4	NA	NA	1401.0	1
76	6	21	M	Filler	119	6	Everybody	1	262.0	NA
76	6	21	M	Filler	119	6	is	2	267.0	NA
76	6	21	M	Filler	119	6	wondering	3	200.0	NA
76	6	21	M	Filler	119	6	which	4	200.0	NA
76	6	21	M	Filler	119	6	software	5	199.0	NA
76	6	21	M	Filler	119	6	Gary	6	201.0	NA
76	6	21	M	Filler	119	6	installed	7	233.0	NA
76	6	21	M	Filler	119	6	without	8	234.0	NA
76	6	21	M	Filler	119	6	buying	9	233.0	NA
76	6	21	M	Filler	119	6	last	10	267.0	NA
76	6	21	M	Filler	119	6	June.	11	333.0	NA
76	6	21	M	Question	119	6	NA	NA	2351.0	1
77	6	21	M	swets	18	2	The	1	362.0	NA
77	6	21	M	swets	18	2	niece	2	265.0	NA
77	6	21	M	swets	18	2	of	3	600.0	NA
77	6	21	M	swets	18	2	the	4	234.0	NA
77	6	21	M	swets	18	2	fisherman	5	266.0	NA
77	6	21	M	swets	18	2	who	6	201.0	NA
77	6	21	M	swets	18	2	drowned	7	434.0	NA
77	6	21	M	swets	18	2	himself	8	332.0	NA
77	6	21	M	swets	18	2	in	9	1001.0	NA
77	6	21	M	swets	18	2	the	10	367.0	NA
77	6	21	M	swets	18	2	ocean	11	592.0	NA
77	6	21	M	swets	18	2	didn't	12	375.0	NA
77	6	21	M	swets	18	2	know	13	966.0	NA
77	6	21	M	swets	18	2	about	14	566.0	NA
77	6	21	M	swets	18	2	the	15	434.0	NA
77	6	21	M	swets	18	2	tricky	16	334.0	NA
77	6	21	M	swets	18	2	current.	17	367.0	NA
77	6	21	M	Question	18	2	NA	NA	4017.0	1
78	6	21	M	Filler	63	4	The	1	279.0	NA
78	6	21	M	Filler	63	4	bride	2	231.0	NA
78	6	21	M	Filler	63	4	was	3	202.0	NA
78	6	21	M	Filler	63	4	devastated	4	133.0	NA
78	6	21	M	Filler	63	4	to	5	183.0	NA
78	6	21	M	Filler	63	4	lose	6	250.0	NA
78	6	21	M	Filler	63	4	her	7	185.0	NA
78	6	21	M	Filler	63	4	gold	8	166.0	NA
78	6	21	M	Filler	63	4	ring	9	233.0	NA
78	6	21	M	Filler	63	4	with	10	300.0	NA
78	6	21	M	Filler	63	4	a	11	233.0	NA
78	6	21	M	Filler	63	4	gleaming	12	201.0	NA
78	6	21	M	Filler	63	4	diamond	13	300.0	NA
78	6	21	M	Filler	63	4	in	14	268.0	NA
78	6	21	M	Filler	63	4	the	15	249.0	NA
78	6	21	M	Filler	63	4	middle.	16	234.0	NA
78	6	21	M	Question	63	4	NA	NA	2050.0	1
79	6	21	M	Filler	60	4	The	1	444.0	NA
79	6	21	M	Filler	60	4	newlyweds	2	500.0	NA
79	6	21	M	Filler	60	4	were	3	299.0	NA
79	6	21	M	Filler	60	4	nervous	4	268.0	NA
79	6	21	M	Filler	60	4	about	5	300.0	NA
79	6	21	M	Filler	60	4	their	6	267.0	NA
79	6	21	M	Filler	60	4	new	7	265.0	NA
79	6	21	M	Filler	60	4	life	8	269.0	NA
79	6	21	M	Filler	60	4	together.	9	300.0	NA
79	6	21	M	Question	60	4	NA	NA	2215.0	1
80	6	21	M	swets	24	2	The	1	295.0	NA
80	6	21	M	swets	24	2	daughter	2	267.0	NA
80	6	21	M	swets	24	2	of	3	200.0	NA
80	6	21	M	swets	24	2	the	4	217.0	NA
80	6	21	M	swets	24	2	chaplain	5	234.0	NA
80	6	21	M	swets	24	2	who	6	217.0	NA
80	6	21	M	swets	24	2	drew	7	300.0	NA
80	6	21	M	swets	24	2	attention	8	299.0	NA
80	6	21	M	swets	24	2	to	9	283.0	NA
80	6	21	M	swets	24	2	himself	10	233.0	NA
80	6	21	M	swets	24	2	all	11	302.0	NA
80	6	21	M	swets	24	2	the	12	248.0	NA
80	6	21	M	swets	24	2	time	13	301.0	NA
80	6	21	M	swets	24	2	hated	14	301.0	NA
80	6	21	M	swets	24	2	small	15	300.0	NA
80	6	21	M	swets	24	2	children.	16	334.0	NA
80	6	21	M	Question	24	2	NA	NA	9351.0	1
81	6	21	M	Filler	69	4	The	1	78.0	NA
81	6	21	M	Filler	69	4	tiny	2	467.0	NA
81	6	21	M	Filler	69	4	child	3	234.0	NA
81	6	21	M	Filler	69	4	rolled	4	216.0	NA
81	6	21	M	Filler	69	4	the	5	234.0	NA
81	6	21	M	Filler	69	4	piece	6	200.0	NA
81	6	21	M	Filler	69	4	of	7	232.0	NA
81	6	21	M	Filler	69	4	the	8	267.0	NA
81	6	21	M	Filler	69	4	toy	9	268.0	NA
81	6	21	M	Filler	69	4	into	10	232.0	NA
81	6	21	M	Filler	69	4	the	11	302.0	NA
81	6	21	M	Filler	69	4	next	12	266.0	NA
81	6	21	M	Filler	69	4	room	13	266.0	NA
81	6	21	M	Filler	69	4	after	14	234.0	NA
81	6	21	M	Filler	69	4	it	15	234.0	NA
81	6	21	M	Filler	69	4	broke	16	199.0	NA
81	6	21	M	Filler	69	4	off.	17	302.0	NA
81	6	21	M	Question	69	4	NA	NA	1082.0	1
82	6	21	M	Filler	73	5	My	1	262.0	NA
82	6	21	M	Filler	73	5	cousins	2	233.0	NA
82	6	21	M	Filler	73	5	admired	3	167.0	NA
82	6	21	M	Filler	73	5	the	4	182.0	NA
82	6	21	M	Filler	73	5	singer	5	168.0	NA
82	6	21	M	Filler	73	5	although	6	200.0	NA
82	6	21	M	Filler	73	5	she	7	183.0	NA
82	6	21	M	Filler	73	5	never	8	200.0	NA
82	6	21	M	Filler	73	5	became	9	167.0	NA
82	6	21	M	Filler	73	5	popular.	10	135.0	NA
82	6	21	M	Question	73	5	NA	NA	2765.0	1
83	6	21	M	swets	10	3	The	1	297.0	NA
83	6	21	M	swets	10	3	uncle	2	166.0	NA
83	6	21	M	swets	10	3	of	3	134.0	NA
83	6	21	M	swets	10	3	the	4	133.0	NA
83	6	21	M	swets	10	3	nun	5	133.0	NA
83	6	21	M	swets	10	3	who	6	117.0	NA
83	6	21	M	swets	10	3	lost	7	150.0	NA
83	6	21	M	swets	10	3	himself	8	166.0	NA
83	6	21	M	swets	10	3	in	9	117.0	NA
83	6	21	M	swets	10	3	thought	10	134.0	NA
83	6	21	M	swets	10	3	was	11	199.0	NA
83	6	21	M	swets	10	3	disturbed	12	134.0	NA
83	6	21	M	swets	10	3	by	13	134.0	NA
83	6	21	M	swets	10	3	the	14	217.0	NA
83	6	21	M	swets	10	3	noise.	15	199.0	NA
83	6	21	M	Question	10	3	NA	NA	6135.0	1
84	6	21	M	Filler	37	4	The	1	428.0	NA
84	6	21	M	Filler	37	4	party	2	233.0	NA
84	6	21	M	Filler	37	4	attracted	3	201.0	NA
84	6	21	M	Filler	37	4	the	4	300.0	NA
84	6	21	M	Filler	37	4	fraternity	5	234.0	NA
84	6	21	M	Filler	37	4	members	6	200.0	NA
84	6	21	M	Filler	37	4	whose	7	332.0	NA
84	6	21	M	Filler	37	4	house	8	234.0	NA
84	6	21	M	Filler	37	4	had	9	233.0	NA
84	6	21	M	Filler	37	4	been	10	200.0	NA
84	6	21	M	Filler	37	4	seized	11	201.0	NA
84	6	21	M	Filler	37	4	by	12	268.0	NA
84	6	21	M	Filler	37	4	drug	13	199.0	NA
84	6	21	M	Filler	37	4	agents.	14	233.0	NA
84	6	21	M	Question	37	4	NA	NA	4967.0	1
85	6	21	M	Filler	123	6	The	1	278.0	NA
85	6	21	M	Filler	123	6	student	2	233.0	NA
85	6	21	M	Filler	123	6	and	3	134.0	NA
85	6	21	M	Filler	123	6	professor	4	167.0	NA
85	6	21	M	Filler	123	6	went	5	134.0	NA
85	6	21	M	Filler	123	6	for	6	165.0	NA
85	6	21	M	Filler	123	6	a	7	134.0	NA
85	6	21	M	Filler	123	6	walk	8	267.0	NA
85	6	21	M	Filler	123	6	last	9	134.0	NA
85	6	21	M	Filler	123	6	Tuesday.	10	200.0	NA
85	6	21	M	Question	123	6	NA	NA	1517.0	1
86	6	21	M	Filler	105	5	The	1	246.0	NA
86	6	21	M	Filler	105	5	actors	2	200.0	NA
86	6	21	M	Filler	105	5	rehearsed	3	133.0	NA
86	6	21	M	Filler	105	5	the	4	150.0	NA
86	6	21	M	Filler	105	5	play	5	166.0	NA
86	6	21	M	Filler	105	5	so	6	152.0	NA
86	6	21	M	Filler	105	5	much	7	166.0	NA
86	6	21	M	Filler	105	5	that	8	134.0	NA
86	6	21	M	Filler	105	5	they	9	164.0	NA
86	6	21	M	Filler	105	5	became	10	134.0	NA
86	6	21	M	Filler	105	5	bored	11	134.0	NA
86	6	21	M	Filler	105	5	with	12	134.0	NA
86	6	21	M	Filler	105	5	it.	13	166.0	NA
86	6	21	M	Question	105	5	NA	NA	1732.0	1
87	6	21	M	Filler	49	4	The	1	246.0	NA
87	6	21	M	Filler	49	4	construction	2	199.0	NA
87	6	21	M	Filler	49	4	worker	3	166.0	NA
87	6	21	M	Filler	49	4	sued	4	133.0	NA
87	6	21	M	Filler	49	4	the	5	152.0	NA
87	6	21	M	Filler	49	4	son	6	181.0	NA
87	6	21	M	Filler	49	4	of	7	201.0	NA
87	6	21	M	Filler	49	4	that	8	168.0	NA
87	6	21	M	Filler	49	4	greedy	9	166.0	NA
87	6	21	M	Filler	49	4	banker.	10	166.0	NA
87	6	21	M	Question	49	4	NA	NA	5218.0	1
88	6	21	M	swets	6	2	The	1	312.0	NA
88	6	21	M	swets	6	2	hostess	2	200.0	NA
88	6	21	M	swets	6	2	of	3	166.0	NA
88	6	21	M	swets	6	2	the	4	183.0	NA
88	6	21	M	swets	6	2	mayor	5	169.0	NA
88	6	21	M	swets	6	2	who	6	133.0	NA
88	6	21	M	swets	6	2	complimented	7	166.0	NA
88	6	21	M	swets	6	2	himself	8	1034.0	NA
88	6	21	M	swets	6	2	constantly	9	366.0	NA
88	6	21	M	swets	6	2	was	10	601.0	NA
88	6	21	M	swets	6	2	bothered	11	700.0	NA
88	6	21	M	swets	6	2	by	12	268.0	NA
88	6	21	M	swets	6	2	the	13	282.0	NA
88	6	21	M	swets	6	2	reporter.	14	266.0	NA
88	6	21	M	Question	6	2	NA	NA	3050.0	1
89	6	21	M	Filler	143	7	The	1	295.0	NA
89	6	21	M	Filler	143	7	lawyer	2	167.0	NA
89	6	21	M	Filler	143	7	and	3	167.0	NA
89	6	21	M	Filler	143	7	defendant	4	133.0	NA
89	6	21	M	Filler	143	7	whispered	5	199.0	NA
89	6	21	M	Filler	143	7	furiously	6	166.0	NA
89	6	21	M	Filler	143	7	during	7	202.0	NA
89	6	21	M	Filler	143	7	the	8	200.0	NA
89	6	21	M	Filler	143	7	recess.	9	166.0	NA
89	6	21	M	Question	143	7	NA	NA	3167.0	1
90	6	21	M	Filler	88	5	The	1	344.0	NA
90	6	21	M	Filler	88	5	woman's	2	168.0	NA
90	6	21	M	Filler	88	5	posture	3	133.0	NA
90	6	21	M	Filler	88	5	began	4	101.0	NA
90	6	21	M	Filler	88	5	to	5	217.0	NA
90	6	21	M	Filler	88	5	go	6	199.0	NA
90	6	21	M	Filler	88	5	bad	7	134.0	NA
90	6	21	M	Filler	88	5	because	8	333.0	NA
90	6	21	M	Filler	88	5	of	9	168.0	NA
90	6	21	M	Filler	88	5	her	10	284.0	NA
90	6	21	M	Filler	88	5	constant	11	199.0	NA
90	6	21	M	Filler	88	5	slumping.	12	333.0	NA
90	6	21	M	Question	88	5	NA	NA	2466.0	1
91	6	21	M	Filler	80	5	The	1	661.0	NA
91	6	21	M	Filler	80	5	stepfather	2	267.0	NA
91	6	21	M	Filler	80	5	of	3	267.0	NA
91	6	21	M	Filler	80	5	the	4	184.0	NA
91	6	21	M	Filler	80	5	nun	5	232.0	NA
91	6	21	M	Filler	80	5	with	6	167.0	NA
91	6	21	M	Filler	80	5	a	7	184.0	NA
91	6	21	M	Filler	80	5	long	8	199.0	NA
91	6	21	M	Filler	80	5	white	9	233.0	NA
91	6	21	M	Filler	80	5	beard	10	233.0	NA
91	6	21	M	Filler	80	5	became	11	503.0	NA
91	6	21	M	Filler	80	5	very	12	834.0	NA
91	6	21	M	Filler	80	5	ill.	13	365.0	NA
91	6	21	M	Question	80	5	NA	NA	2750.0	1
92	6	21	M	Filler	101	5	The	1	828.0	NA
92	6	21	M	Filler	101	5	friendly	2	633.0	NA
92	6	21	M	Filler	101	5	woman	3	368.0	NA
92	6	21	M	Filler	101	5	was	4	266.0	NA
92	6	21	M	Filler	101	5	insulted	5	201.0	NA
92	6	21	M	Filler	101	5	by	6	265.0	NA
92	6	21	M	Filler	101	5	the	7	201.0	NA
92	6	21	M	Filler	101	5	rude	8	200.0	NA
92	6	21	M	Filler	101	5	stranger	9	299.0	NA
92	6	21	M	Filler	101	5	because	10	402.0	NA
92	6	21	M	Filler	101	5	he	11	482.0	NA
92	6	21	M	Filler	101	5	didn't	12	535.0	NA
92	6	21	M	Filler	101	5	smile	13	399.0	NA
92	6	21	M	Filler	101	5	at	14	300.0	NA
92	6	21	M	Filler	101	5	her.	15	300.0	NA
92	6	21	M	Question	101	5	NA	NA	1483.0	1
93	6	21	M	Filler	125	6	The	1	328.0	NA
93	6	21	M	Filler	125	6	bosses	2	166.0	NA
93	6	21	M	Filler	125	6	and	3	135.0	NA
93	6	21	M	Filler	125	6	secretaries	4	133.0	NA
93	6	21	M	Filler	125	6	took	5	199.0	NA
93	6	21	M	Filler	125	6	a	6	150.0	NA
93	6	21	M	Filler	125	6	long	7	168.0	NA
93	6	21	M	Filler	125	6	lunch	8	165.0	NA
93	6	21	M	Filler	125	6	together	9	169.0	NA
93	6	21	M	Filler	125	6	every	10	165.0	NA
93	6	21	M	Filler	125	6	Friday.	11	167.0	NA
93	6	21	M	Question	125	6	NA	NA	3051.0	1
94	6	21	M	swets	12	2	The	1	261.0	NA
94	6	21	M	swets	12	2	son	2	201.0	NA
94	6	21	M	swets	12	2	of	3	167.0	NA
94	6	21	M	swets	12	2	the	4	149.0	NA
94	6	21	M	swets	12	2	princess	5	167.0	NA
94	6	21	M	swets	12	2	who	6	152.0	NA
94	6	21	M	swets	12	2	scratched	7	200.0	NA
94	6	21	M	swets	12	2	himself	8	199.0	NA
94	6	21	M	swets	12	2	in	9	300.0	NA
94	6	21	M	swets	12	2	public	10	233.0	NA
94	6	21	M	swets	12	2	was	11	501.0	NA
94	6	21	M	swets	12	2	terribly	12	1500.0	NA
94	6	21	M	swets	12	2	humiliated.	13	465.0	NA
94	6	21	M	Question	12	2	NA	NA	2753.0	0
95	6	21	M	Filler	99	5	The	1	344.0	NA
95	6	21	M	Filler	99	5	daring	2	233.0	NA
95	6	21	M	Filler	99	5	photographer	3	268.0	NA
95	6	21	M	Filler	99	5	captured	4	234.0	NA
95	6	21	M	Filler	99	5	the	5	218.0	NA
95	6	21	M	Filler	99	5	image	6	231.0	NA
95	6	21	M	Filler	99	5	of	7	500.0	NA
95	6	21	M	Filler	99	5	the	8	284.0	NA
95	6	21	M	Filler	99	5	destruction	9	234.0	NA
95	6	21	M	Filler	99	5	as	10	432.0	NA
95	6	21	M	Filler	99	5	it	11	335.0	NA
95	6	21	M	Filler	99	5	devastated	12	533.0	NA
95	6	21	M	Filler	99	5	the	13	433.0	NA
95	6	21	M	Filler	99	5	village.	14	299.0	NA
95	6	21	M	Question	99	5	NA	NA	1718.0	1
96	6	21	M	Filler	133	7	While	1	1028.0	NA
96	6	21	M	Filler	133	7	the	2	401.0	NA
96	6	21	M	Filler	133	7	lawyers	3	298.0	NA
96	6	21	M	Filler	133	7	fought	4	235.0	NA
96	6	21	M	Filler	133	7	the	5	234.0	NA
96	6	21	M	Filler	133	7	ruling	6	233.0	NA
96	6	21	M	Filler	133	7	the	7	250.0	NA
96	6	21	M	Filler	133	7	judge	8	300.0	NA
96	6	21	M	Filler	133	7	announced	9	234.0	NA
96	6	21	M	Filler	133	7	the	10	282.0	NA
96	6	21	M	Filler	133	7	decision.	11	234.0	NA
96	6	21	M	Question	133	7	NA	NA	1867.0	0
97	6	21	M	swets	21	2	The	1	379.0	NA
97	6	21	M	swets	21	2	wife	2	233.0	NA
97	6	21	M	swets	21	2	of	3	233.0	NA
97	6	21	M	swets	21	2	the	4	184.0	NA
97	6	21	M	swets	21	2	janitor	5	233.0	NA
97	6	21	M	swets	21	2	who	6	283.0	NA
97	6	21	M	swets	21	2	educated	7	250.0	NA
97	6	21	M	swets	21	2	himself	8	567.0	NA
97	6	21	M	swets	21	2	at	9	499.0	NA
97	6	21	M	swets	21	2	night	10	335.0	NA
97	6	21	M	swets	21	2	loved	11	1365.0	NA
97	6	21	M	swets	21	2	going	12	301.0	NA
97	6	21	M	swets	21	2	to	13	301.0	NA
97	6	21	M	swets	21	2	the	14	350.0	NA
97	6	21	M	swets	21	2	theatre.	15	299.0	NA
97	6	21	M	Question	21	2	NA	NA	1851.0	1
98	6	21	M	Filler	136	7	While	1	328.0	NA
98	6	21	M	Filler	136	7	Mark	2	134.0	NA
98	6	21	M	Filler	136	7	and	3	134.0	NA
98	6	21	M	Filler	136	7	Jenny	4	166.0	NA
98	6	21	M	Filler	136	7	were	5	200.0	NA
98	6	21	M	Filler	136	7	cuddling	6	200.0	NA
98	6	21	M	Filler	136	7	the	7	200.0	NA
98	6	21	M	Filler	136	7	older	8	218.0	NA
98	6	21	M	Filler	136	7	dogs	9	199.0	NA
98	6	21	M	Filler	136	7	the	10	199.0	NA
98	6	21	M	Filler	136	7	puppies	11	234.0	NA
98	6	21	M	Filler	136	7	nipped	12	1635.0	NA
98	6	21	M	Filler	136	7	at	13	333.0	NA
98	6	21	M	Filler	136	7	their	14	400.0	NA
98	6	21	M	Filler	136	7	feet.	15	367.0	NA
98	6	21	M	Question	136	7	NA	NA	1700.0	1
99	6	21	M	Filler	51	4	The	1	394.0	NA
99	6	21	M	Filler	51	4	students	2	266.0	NA
99	6	21	M	Filler	51	4	were	3	234.0	NA
99	6	21	M	Filler	51	4	in	4	218.0	NA
99	6	21	M	Filler	51	4	a	5	250.0	NA
99	6	21	M	Filler	51	4	frenzy	6	398.0	NA
99	6	21	M	Filler	51	4	because	7	300.0	NA
99	6	21	M	Filler	51	4	they	8	267.0	NA
99	6	21	M	Filler	51	4	wanted	9	200.0	NA
99	6	21	M	Filler	51	4	tickets	10	203.0	NA
99	6	21	M	Filler	51	4	for	11	233.0	NA
99	6	21	M	Filler	51	4	the	12	232.0	NA
99	6	21	M	Filler	51	4	game	13	267.0	NA
99	6	21	M	Filler	51	4	tonight.	14	367.0	NA
99	6	21	M	Question	51	4	NA	NA	1800.0	1
100	6	21	M	swets	16	3	The	1	345.0	NA
100	6	21	M	swets	16	3	widow	2	133.0	NA
100	6	21	M	swets	16	3	of	3	133.0	NA
100	6	21	M	swets	16	3	the	4	150.0	NA
100	6	21	M	swets	16	3	general	5	133.0	NA
100	6	21	M	swets	16	3	who	6	101.0	NA
100	6	21	M	swets	16	3	sacrificed	7	133.0	NA
100	6	21	M	swets	16	3	herself	8	133.0	NA
100	6	21	M	swets	16	3	for	9	134.0	NA
100	6	21	M	swets	16	3	the	10	250.0	NA
100	6	21	M	swets	16	3	cause	11	868.0	NA
100	6	21	M	swets	16	3	was	12	432.0	NA
100	6	21	M	swets	16	3	the	13	351.0	NA
100	6	21	M	swets	16	3	subject	14	300.0	NA
100	6	21	M	swets	16	3	of	15	299.0	NA
100	6	21	M	swets	16	3	the	16	234.0	NA
100	6	21	M	swets	16	3	biography.	17	367.0	NA
100	6	21	M	Question	16	3	NA	NA	8051.0	0
101	6	21	M	Filler	78	5	The	1	360.0	NA
101	6	21	M	Filler	78	5	customer	2	135.0	NA
101	6	21	M	Filler	78	5	complimented	3	167.0	NA
101	6	21	M	Filler	78	5	the	4	300.0	NA
101	6	21	M	Filler	78	5	store	5	182.0	NA
101	6	21	M	Filler	78	5	keeper	6	201.0	NA
101	6	21	M	Filler	78	5	with	7	266.0	NA
101	6	21	M	Filler	78	5	the	8	167.0	NA
101	6	21	M	Filler	78	5	new	9	233.0	NA
101	6	21	M	Filler	78	5	stock.	10	200.0	NA
101	6	21	M	Question	78	5	NA	NA	1851.0	1
102	6	21	M	swets	17	1	The	1	411.0	NA
102	6	21	M	swets	17	1	grandmother	2	133.0	NA
102	6	21	M	swets	17	1	of	3	135.0	NA
102	6	21	M	swets	17	1	the	4	182.0	NA
102	6	21	M	swets	17	1	heiress	5	201.0	NA
102	6	21	M	swets	17	1	who	6	183.0	NA
102	6	21	M	swets	17	1	bankrupted	7	234.0	NA
102	6	21	M	swets	17	1	herself	8	267.0	NA
102	6	21	M	swets	17	1	last	9	734.0	NA
102	6	21	M	swets	17	1	year	10	433.0	NA
102	6	21	M	swets	17	1	still	11	366.0	NA
102	6	21	M	swets	17	1	made	12	267.0	NA
102	6	21	M	swets	17	1	risky	13	266.0	NA
102	6	21	M	swets	17	1	investments.	14	234.0	NA
102	6	21	M	Question	17	1	NA	NA	2002.0	0
103	6	21	M	Filler	54	4	The	1	578.0	NA
103	6	21	M	Filler	54	4	video	2	301.0	NA
103	6	21	M	Filler	54	4	screen	3	200.0	NA
103	6	21	M	Filler	54	4	of	4	333.0	NA
103	6	21	M	Filler	54	4	the	5	200.0	NA
103	6	21	M	Filler	54	4	monitor	6	233.0	NA
103	6	21	M	Filler	54	4	made	7	300.0	NA
103	6	21	M	Filler	54	4	strange	8	234.0	NA
103	6	21	M	Filler	54	4	noises	9	233.0	NA
103	6	21	M	Filler	54	4	and	10	402.0	NA
103	6	21	M	Filler	54	4	started	11	266.0	NA
103	6	21	M	Filler	54	4	emitting	12	233.0	NA
103	6	21	M	Filler	54	4	strange	13	267.0	NA
103	6	21	M	Filler	54	4	flashes.	14	265.0	NA
103	6	21	M	Question	54	4	NA	NA	2002.0	1
104	6	21	M	Filler	137	7	When	1	377.0	NA
104	6	21	M	Filler	137	7	Leslie	2	235.0	NA
104	6	21	M	Filler	137	7	was	3	300.0	NA
104	6	21	M	Filler	137	7	sneezing	4	266.0	NA
104	6	21	M	Filler	137	7	her	5	250.0	NA
104	6	21	M	Filler	137	7	friends	6	266.0	NA
104	6	21	M	Filler	137	7	laughed	7	234.0	NA
104	6	21	M	Filler	137	7	at	8	334.0	NA
104	6	21	M	Filler	137	7	her.	9	867.0	NA
104	6	21	M	Question	137	7	NA	NA	1800.0	1
105	6	21	M	Filler	38	4	Despite	1	445.0	NA
105	6	21	M	Filler	38	4	the	2	383.0	NA
105	6	21	M	Filler	38	4	lack	3	134.0	NA
105	6	21	M	Filler	38	4	of	4	267.0	NA
105	6	21	M	Filler	38	4	publicity	5	233.0	NA
105	6	21	M	Filler	38	4	many	6	218.0	NA
105	6	21	M	Filler	38	4	people	7	233.0	NA
105	6	21	M	Filler	38	4	attended	8	200.0	NA
105	6	21	M	Filler	38	4	the	9	249.0	NA
105	6	21	M	Filler	38	4	lecture.	10	234.0	NA
105	6	21	M	Question	38	4	NA	NA	2050.0	1
106	6	21	M	swets	32	1	The	1	311.0	NA
106	6	21	M	swets	32	1	niece	2	201.0	NA
106	6	21	M	swets	32	1	of	3	166.0	NA
106	6	21	M	swets	32	1	the	4	134.0	NA
106	6	21	M	swets	32	1	duchess	5	165.0	NA
106	6	21	M	swets	32	1	who	6	119.0	NA
106	6	21	M	swets	32	1	looked	7	166.0	NA
106	6	21	M	swets	32	1	at	8	133.0	NA
106	6	21	M	swets	32	1	herself	9	199.0	NA
106	6	21	M	swets	32	1	in	10	283.0	NA
106	6	21	M	swets	32	1	the	11	319.0	NA
106	6	21	M	swets	32	1	mirror	12	298.0	NA
106	6	21	M	swets	32	1	wore	13	285.0	NA
106	6	21	M	swets	32	1	a	14	252.0	NA
106	6	21	M	swets	32	1	blue	15	264.0	NA
106	6	21	M	swets	32	1	shirt.	16	268.0	NA
106	6	21	M	Question	32	1	NA	NA	3250.0	1
107	6	21	M	Filler	93	5	The	1	379.0	NA
107	6	21	M	Filler	93	5	new	2	166.0	NA
107	6	21	M	Filler	93	5	book	3	135.0	NA
107	6	21	M	Filler	93	5	replaced	4	132.0	NA
107	6	21	M	Filler	93	5	the	5	168.0	NA
107	6	21	M	Filler	93	5	work	6	165.0	NA
107	6	21	M	Filler	93	5	of	7	135.0	NA
107	6	21	M	Filler	93	5	the	8	199.0	NA
107	6	21	M	Filler	93	5	leaders	9	167.0	NA
107	6	21	M	Filler	93	5	in	10	167.0	NA
107	6	21	M	Filler	93	5	the	11	332.0	NA
107	6	21	M	Filler	93	5	field	12	267.0	NA
107	6	21	M	Filler	93	5	of	13	334.0	NA
107	6	21	M	Filler	93	5	physical	14	268.0	NA
107	6	21	M	Filler	93	5	chemistry.	15	300.0	NA
107	6	21	M	Question	93	5	NA	NA	1784.0	0
108	6	21	M	swets	14	1	The	1	411.0	NA
108	6	21	M	swets	14	1	mother	2	267.0	NA
108	6	21	M	swets	14	1	of	3	300.0	NA
108	6	21	M	swets	14	1	the	4	384.0	NA
108	6	21	M	swets	14	1	nurse	5	300.0	NA
108	6	21	M	swets	14	1	who	6	717.0	NA
108	6	21	M	swets	14	1	injured	7	833.0	NA
108	6	21	M	swets	14	1	herself	8	367.0	NA
108	6	21	M	swets	14	1	last	9	334.0	NA
108	6	21	M	swets	14	1	summer	10	666.0	NA
108	6	21	M	swets	14	1	had	11	835.0	NA
108	6	21	M	swets	14	1	lived	12	432.0	NA
108	6	21	M	swets	14	1	in	13	885.0	NA
108	6	21	M	swets	14	1	Wales.	14	365.0	NA
108	6	21	M	Question	14	1	NA	NA	1250.0	1
109	6	21	M	Filler	104	5	Despite	1	361.0	NA
109	6	21	M	Filler	104	5	the	2	351.0	NA
109	6	21	M	Filler	104	5	relative	3	166.0	NA
109	6	21	M	Filler	104	5	lack	4	133.0	NA
109	6	21	M	Filler	104	5	of	5	201.0	NA
109	6	21	M	Filler	104	5	rain	6	166.0	NA
109	6	21	M	Filler	104	5	the	7	166.0	NA
109	6	21	M	Filler	104	5	farmer	8	168.0	NA
109	6	21	M	Filler	104	5	harvested	9	200.0	NA
109	6	21	M	Filler	104	5	much	10	265.0	NA
109	6	21	M	Filler	104	5	wheat.	11	267.0	NA
109	6	21	M	Question	104	5	NA	NA	1800.0	1
110	6	21	M	Filler	122	6	They	1	862.0	NA
110	6	21	M	Filler	122	6	don't	2	298.0	NA
110	6	21	M	Filler	122	6	know	3	235.0	NA
110	6	21	M	Filler	122	6	which	4	233.0	NA
110	6	21	M	Filler	122	6	family	5	233.0	NA
110	6	21	M	Filler	122	6	the	6	233.0	NA
110	6	21	M	Filler	122	6	hijackers	7	202.0	NA
110	6	21	M	Filler	122	6	held	8	283.0	NA
110	6	21	M	Filler	122	6	hostage	9	267.0	NA
110	6	21	M	Filler	122	6	but	10	333.0	NA
110	6	21	M	Filler	122	6	didn't	11	267.0	NA
110	6	21	M	Filler	122	6	hurt	12	500.0	NA
110	6	21	M	Filler	122	6	the	13	400.0	NA
110	6	21	M	Filler	122	6	children	14	899.0	NA
110	6	21	M	Filler	122	6	of	15	567.0	NA
110	6	21	M	Filler	122	6	too	16	267.0	NA
110	6	21	M	Filler	122	6	much.	17	1301.0	NA
110	6	21	M	Question	122	6	NA	NA	2100.0	1
111	6	21	M	Filler	117	6	While	1	312.0	NA
111	6	21	M	Filler	117	6	Mike	2	266.0	NA
111	6	21	M	Filler	117	6	coughed	3	134.0	NA
111	6	21	M	Filler	117	6	Janet	4	233.0	NA
111	6	21	M	Filler	117	6	went	5	1300.0	NA
111	6	21	M	Filler	117	6	out	6	400.0	NA
111	6	21	M	Filler	117	6	to	7	284.0	NA
111	6	21	M	Filler	117	6	get	8	267.0	NA
111	6	21	M	Filler	117	6	some	9	333.0	NA
111	6	21	M	Filler	117	6	cough	10	433.0	NA
111	6	21	M	Filler	117	6	medicine.	11	468.0	NA
111	6	21	M	Question	117	6	NA	NA	3500.0	0
112	6	21	M	Filler	98	5	The	1	296.0	NA
112	6	21	M	Filler	98	5	husband	2	183.0	NA
112	6	21	M	Filler	98	5	of	3	133.0	NA
112	6	21	M	Filler	98	5	the	4	150.0	NA
112	6	21	M	Filler	98	5	bestselling	5	166.0	NA
112	6	21	M	Filler	98	5	novelist	6	268.0	NA
112	6	21	M	Filler	98	5	was	7	201.0	NA
112	6	21	M	Filler	98	5	into	8	233.0	NA
112	6	21	M	Filler	98	5	collecting	9	232.0	NA
112	6	21	M	Filler	98	5	antiques.	10	199.0	NA
112	6	21	M	Question	98	5	NA	NA	1751.0	1
113	6	21	M	swets	26	1	The	1	696.0	NA
113	6	21	M	swets	26	1	grand-nephew	2	282.0	NA
113	6	21	M	swets	26	1	of	3	433.0	NA
113	6	21	M	swets	26	1	the	4	284.0	NA
113	6	21	M	swets	26	1	admiral	5	301.0	NA
113	6	21	M	swets	26	1	who	6	482.0	NA
113	6	21	M	swets	26	1	wrote	7	552.0	NA
113	6	21	M	swets	26	1	himself	8	501.0	NA
113	6	21	M	swets	26	1	a	9	399.0	NA
113	6	21	M	swets	26	1	note	10	333.0	NA
113	6	21	M	swets	26	1	admired	11	500.0	NA
113	6	21	M	swets	26	1	sailors	12	501.0	NA
113	6	21	M	swets	26	1	very	13	567.0	NA
113	6	21	M	swets	26	1	much.	14	398.0	NA
113	6	21	M	Question	26	1	NA	NA	8454.0	1
114	6	21	M	Filler	66	4	The	1	995.0	NA
114	6	21	M	Filler	66	4	rare	2	300.0	NA
114	6	21	M	Filler	66	4	and	3	533.0	NA
114	6	21	M	Filler	66	4	exotic	4	299.0	NA
114	6	21	M	Filler	66	4	monkey	5	502.0	NA
114	6	21	M	Filler	66	4	was	6	398.0	NA
114	6	21	M	Filler	66	4	the	7	267.0	NA
114	6	21	M	Filler	66	4	center	8	235.0	NA
114	6	21	M	Filler	66	4	of	9	265.0	NA
114	6	21	M	Filler	66	4	attention	10	234.0	NA
114	6	21	M	Filler	66	4	at	11	366.0	NA
114	6	21	M	Filler	66	4	the	12	369.0	NA
114	6	21	M	Filler	66	4	zoo.	13	265.0	NA
114	6	21	M	Question	66	4	NA	NA	3151.0	1
115	6	21	M	swets	1	3	The	1	929.0	NA
115	6	21	M	swets	1	3	brother	2	233.0	NA
115	6	21	M	swets	1	3	of	3	200.0	NA
115	6	21	M	swets	1	3	the	4	199.0	NA
115	6	21	M	swets	1	3	actress	5	201.0	NA
115	6	21	M	swets	1	3	who	6	268.0	NA
115	6	21	M	swets	1	3	called	7	265.0	NA
115	6	21	M	swets	1	3	attention	8	234.0	NA
115	6	21	M	swets	1	3	to	9	267.0	NA
115	6	21	M	swets	1	3	himself	10	299.0	NA
115	6	21	M	swets	1	3	on	11	302.0	NA
115	6	21	M	swets	1	3	the	12	283.0	NA
115	6	21	M	swets	1	3	balcony	13	332.0	NA
115	6	21	M	swets	1	3	was	14	367.0	NA
115	6	21	M	swets	1	3	under	15	302.0	NA
115	6	21	M	swets	1	3	investigation.	16	498.0	NA
115	6	21	M	Question	1	3	NA	NA	5002.0	0
116	6	21	M	Filler	91	5	The	1	545.0	NA
116	6	21	M	Filler	91	5	workman	2	300.0	NA
116	6	21	M	Filler	91	5	dropped	3	268.0	NA
116	6	21	M	Filler	91	5	the	4	333.0	NA
116	6	21	M	Filler	91	5	assistant	5	400.0	NA
116	6	21	M	Filler	91	5	who	6	434.0	NA
116	6	21	M	Filler	91	5	complained	7	365.0	NA
116	6	21	M	Filler	91	5	bitterly	8	267.0	NA
116	6	21	M	Filler	91	5	onto	9	567.0	NA
116	6	21	M	Filler	91	5	a	10	434.0	NA
116	6	21	M	Filler	91	5	lower	11	333.0	NA
116	6	21	M	Filler	91	5	floor.	12	433.0	NA
116	6	21	M	Question	91	5	NA	NA	3402.0	1
117	6	21	M	Filler	124	6	The	1	314.0	NA
117	6	21	M	Filler	124	6	mothers	2	199.0	NA
117	6	21	M	Filler	124	6	and	3	201.0	NA
117	6	21	M	Filler	124	6	teachers	4	166.0	NA
117	6	21	M	Filler	124	6	played	5	166.0	NA
117	6	21	M	Filler	124	6	tennis	6	168.0	NA
117	6	21	M	Filler	124	6	after	7	232.0	NA
117	6	21	M	Filler	124	6	the	8	166.0	NA
117	6	21	M	Filler	124	6	kids	9	235.0	NA
117	6	21	M	Filler	124	6	left.	10	266.0	NA
117	6	21	M	Question	124	6	NA	NA	1351.0	1
118	6	21	M	Filler	135	7	While	1	545.0	NA
118	6	21	M	Filler	135	7	Donna	2	234.0	NA
118	6	21	M	Filler	135	7	and	3	234.0	NA
118	6	21	M	Filler	135	7	Scott	4	199.0	NA
118	6	21	M	Filler	135	7	met	5	168.0	NA
118	6	21	M	Filler	135	7	their	6	232.0	NA
118	6	21	M	Filler	135	7	agent	7	167.0	NA
118	6	21	M	Filler	135	7	some	8	233.0	NA
118	6	21	M	Filler	135	7	friends	9	234.0	NA
118	6	21	M	Filler	135	7	called	10	201.0	NA
118	6	21	M	Filler	135	7	and	11	233.0	NA
118	6	21	M	Filler	135	7	left	12	232.0	NA
118	6	21	M	Filler	135	7	a	13	202.0	NA
118	6	21	M	Filler	135	7	message.	14	232.0	NA
118	6	21	M	Question	135	7	NA	NA	1751.0	1
119	6	21	M	Filler	108	5	The	1	512.0	NA
119	6	21	M	Filler	108	5	museum	2	299.0	NA
119	6	21	M	Filler	108	5	wing	3	269.0	NA
119	6	21	M	Filler	108	5	which	4	299.0	NA
119	6	21	M	Filler	108	5	housed	5	234.0	NA
119	6	21	M	Filler	108	5	all	6	200.0	NA
119	6	21	M	Filler	108	5	the	7	200.0	NA
119	6	21	M	Filler	108	5	Picasso	8	183.0	NA
119	6	21	M	Filler	108	5	paintings	9	333.0	NA
119	6	21	M	Filler	108	5	was	10	233.0	NA
119	6	21	M	Filler	108	5	very	11	267.0	NA
119	6	21	M	Filler	108	5	crowded.	12	266.0	NA
119	6	21	M	Question	108	5	NA	NA	1652.0	1
120	6	21	M	Filler	81	5	The	1	312.0	NA
120	6	21	M	Filler	81	5	stubborn	2	266.0	NA
120	6	21	M	Filler	81	5	old	3	218.0	NA
120	6	21	M	Filler	81	5	man	4	549.0	NA
120	6	21	M	Filler	81	5	criticized	5	417.0	NA
120	6	21	M	Filler	81	5	everything	6	467.0	NA
120	6	21	M	Filler	81	5	that	7	666.0	NA
120	6	21	M	Filler	81	5	the	8	352.0	NA
120	6	21	M	Filler	81	5	young	9	499.0	NA
120	6	21	M	Filler	81	5	student	10	2467.0	NA
120	6	21	M	Filler	81	5	did.	11	366.0	NA
120	6	21	M	Question	81	5	NA	NA	2902.0	1
121	6	21	M	Filler	96	5	The	1	428.0	NA
121	6	21	M	Filler	96	5	evil	2	466.0	NA
121	6	21	M	Filler	96	5	man	3	418.0	NA
121	6	21	M	Filler	96	5	watched	4	333.0	NA
121	6	21	M	Filler	96	5	the	5	333.0	NA
121	6	21	M	Filler	96	5	doorway	6	299.0	NA
121	6	21	M	Filler	96	5	of	7	301.0	NA
121	6	21	M	Filler	96	5	the	8	334.0	NA
121	6	21	M	Filler	96	5	bar	9	366.0	NA
121	6	21	M	Filler	96	5	every	10	567.0	NA
121	6	21	M	Filler	96	5	Friday	11	567.0	NA
121	6	21	M	Filler	96	5	night.	12	466.0	NA
121	6	21	M	Question	96	5	NA	NA	5852.0	0
122	6	21	M	swets	15	2	The	1	429.0	NA
122	6	21	M	swets	15	2	husband	2	266.0	NA
122	6	21	M	swets	15	2	of	3	268.0	NA
122	6	21	M	swets	15	2	the	4	199.0	NA
122	6	21	M	swets	15	2	beautician	5	250.0	NA
122	6	21	M	swets	15	2	who	6	201.0	NA
122	6	21	M	swets	15	2	cut	7	234.0	NA
122	6	21	M	swets	15	2	herself	8	399.0	NA
122	6	21	M	swets	15	2	on	9	367.0	NA
122	6	21	M	swets	15	2	the	10	316.0	NA
122	6	21	M	swets	15	2	broken	11	466.0	NA
122	6	21	M	swets	15	2	glass	12	434.0	NA
122	6	21	M	swets	15	2	phoned	13	334.0	NA
122	6	21	M	swets	15	2	for	14	300.0	NA
122	6	21	M	swets	15	2	a	15	300.0	NA
122	6	21	M	swets	15	2	doctor.	16	268.0	NA
122	6	21	M	Question	15	2	NA	NA	1298.0	1
123	6	21	M	Filler	71	4	The	1	945.0	NA
123	6	21	M	Filler	71	4	elderly	2	266.0	NA
123	6	21	M	Filler	71	4	woman	3	200.0	NA
123	6	21	M	Filler	71	4	locked	4	234.0	NA
123	6	21	M	Filler	71	4	and	5	266.0	NA
123	6	21	M	Filler	71	4	bolted	6	233.0	NA
123	6	21	M	Filler	71	4	her	7	251.0	NA
123	6	21	M	Filler	71	4	door	8	299.0	NA
123	6	21	M	Filler	71	4	every	9	400.0	NA
123	6	21	M	Filler	71	4	night	10	301.0	NA
123	6	21	M	Filler	71	4	after	11	499.0	NA
123	6	21	M	Filler	71	4	the	12	235.0	NA
123	6	21	M	Filler	71	4	robbers	13	232.0	NA
123	6	21	M	Filler	71	4	took	14	300.0	NA
123	6	21	M	Filler	71	4	her	15	283.0	NA
123	6	21	M	Filler	71	4	best	16	266.0	NA
123	6	21	M	Filler	71	4	pearls.	17	234.0	NA
123	6	21	M	Question	71	4	NA	NA	1501.0	1
124	6	21	M	Filler	103	5	The	1	328.0	NA
124	6	21	M	Filler	103	5	desperate	2	168.0	NA
124	6	21	M	Filler	103	5	thief	3	200.0	NA
124	6	21	M	Filler	103	5	ran	4	166.0	NA
124	6	21	M	Filler	103	5	over	5	201.0	NA
124	6	21	M	Filler	103	5	a	6	200.0	NA
124	6	21	M	Filler	103	5	child	7	234.0	NA
124	6	21	M	Filler	103	5	in	8	232.0	NA
124	6	21	M	Filler	103	5	an	9	251.0	NA
124	6	21	M	Filler	103	5	attempt	10	233.0	NA
124	6	21	M	Filler	103	5	to	11	266.0	NA
124	6	21	M	Filler	103	5	dodge	12	268.0	NA
124	6	21	M	Filler	103	5	the	13	233.0	NA
124	6	21	M	Filler	103	5	cops.	14	266.0	NA
124	6	21	M	Question	103	5	NA	NA	1468.0	0
125	6	21	M	Filler	121	6	The	1	262.0	NA
125	6	21	M	Filler	121	6	ecologist	2	300.0	NA
125	6	21	M	Filler	121	6	wondered	3	267.0	NA
125	6	21	M	Filler	121	6	which	4	566.0	NA
125	6	21	M	Filler	121	6	plants	5	234.0	NA
125	6	21	M	Filler	121	6	the	6	166.0	NA
125	6	21	M	Filler	121	6	scientist	7	234.0	NA
125	6	21	M	Filler	121	6	grew	8	299.0	NA
125	6	21	M	Filler	121	6	but	9	201.0	NA
125	6	21	M	Filler	121	6	didn't	10	282.0	NA
125	6	21	M	Filler	121	6	modify	11	202.0	NA
125	6	21	M	Filler	121	6	the	12	367.0	NA
125	6	21	M	Filler	121	6	seeds	13	333.0	NA
125	6	21	M	Filler	121	6	of	14	367.0	NA
125	6	21	M	Filler	121	6	in	15	283.0	NA
125	6	21	M	Filler	121	6	the	16	351.0	NA
125	6	21	M	Filler	121	6	lab.	17	399.0	NA
125	6	21	M	Question	121	6	NA	NA	1799.0	1
126	6	21	M	Filler	113	6	While	1	377.0	NA
126	6	21	M	Filler	113	6	Noah	2	300.0	NA
126	6	21	M	Filler	113	6	was	3	400.0	NA
126	6	21	M	Filler	113	6	waking	4	502.0	NA
126	6	21	M	Filler	113	6	up	5	300.0	NA
126	6	21	M	Filler	113	6	the	6	266.0	NA
126	6	21	M	Filler	113	6	man	7	250.0	NA
126	6	21	M	Filler	113	6	the	8	250.0	NA
126	6	21	M	Filler	113	6	neighbor	9	234.0	NA
126	6	21	M	Filler	113	6	coughed	10	550.0	NA
126	6	21	M	Filler	113	6	loudly.	11	434.0	NA
126	6	21	M	Question	113	6	NA	NA	1650.0	1
127	6	21	M	Filler	85	5	The	1	545.0	NA
127	6	21	M	Filler	85	5	college	2	302.0	NA
127	6	21	M	Filler	85	5	students	3	215.0	NA
127	6	21	M	Filler	85	5	were	4	185.0	NA
127	6	21	M	Filler	85	5	upset	5	266.0	NA
127	6	21	M	Filler	85	5	that	6	167.0	NA
127	6	21	M	Filler	85	5	they	7	200.0	NA
127	6	21	M	Filler	85	5	had	8	166.0	NA
127	6	21	M	Filler	85	5	an	9	151.0	NA
127	6	21	M	Filler	85	5	exam	10	199.0	NA
127	6	21	M	Filler	85	5	the	11	250.0	NA
127	6	21	M	Filler	85	5	next	12	200.0	NA
127	6	21	M	Filler	85	5	day.	13	300.0	NA
127	6	21	M	Question	85	5	NA	NA	1951.0	1
128	6	21	M	swets	22	3	The	1	295.0	NA
128	6	21	M	swets	22	3	niece	2	234.0	NA
128	6	21	M	swets	22	3	of	3	166.0	NA
128	6	21	M	swets	22	3	the	4	184.0	NA
128	6	21	M	swets	22	3	commander	5	165.0	NA
128	6	21	M	swets	22	3	who	6	218.0	NA
128	6	21	M	swets	22	3	calmed	7	233.0	NA
128	6	21	M	swets	22	3	herself	8	299.0	NA
128	6	21	M	swets	22	3	after	9	268.0	NA
128	6	21	M	swets	22	3	the	10	333.0	NA
128	6	21	M	swets	22	3	tragedy	11	301.0	NA
128	6	21	M	swets	22	3	was	12	435.0	NA
128	6	21	M	swets	22	3	waiting	13	1731.0	NA
128	6	21	M	swets	22	3	for	14	401.0	NA
128	6	21	M	swets	22	3	the	15	267.0	NA
128	6	21	M	swets	22	3	doctor.	16	300.0	NA
128	6	21	M	Question	22	3	NA	NA	3500.0	1
129	6	21	M	Filler	106	5	On	1	327.0	NA
129	6	21	M	Filler	106	5	the	2	185.0	NA
129	6	21	M	Filler	106	5	last	3	198.0	NA
129	6	21	M	Filler	106	5	night	4	167.0	NA
129	6	21	M	Filler	106	5	of	5	201.0	NA
129	6	21	M	Filler	106	5	summer	6	200.0	NA
129	6	21	M	Filler	106	5	camp	7	201.0	NA
129	6	21	M	Filler	106	5	the	8	200.0	NA
129	6	21	M	Filler	106	5	counselors	9	299.0	NA
129	6	21	M	Filler	106	5	let	10	217.0	NA
129	6	21	M	Filler	106	5	the	11	216.0	NA
129	6	21	M	Filler	106	5	children	12	201.0	NA
129	6	21	M	Filler	106	5	stay	13	233.0	NA
129	6	21	M	Filler	106	5	up	14	201.0	NA
129	6	21	M	Filler	106	5	until	15	232.0	NA
129	6	21	M	Filler	106	5	midnight.	16	233.0	NA
129	6	21	M	Question	106	5	NA	NA	1703.0	1
130	6	21	M	Filler	48	4	The	1	411.0	NA
130	6	21	M	Filler	48	4	police	2	202.0	NA
130	6	21	M	Filler	48	4	arrested	3	198.0	NA
130	6	21	M	Filler	48	4	the	4	285.0	NA
130	6	21	M	Filler	48	4	sister	5	300.0	NA
130	6	21	M	Filler	48	4	of	6	335.0	NA
130	6	21	M	Filler	48	4	the	7	216.0	NA
130	6	21	M	Filler	48	4	handyman	8	200.0	NA
130	6	21	M	Filler	48	4	after	9	1167.0	NA
130	6	21	M	Filler	48	4	she	10	349.0	NA
130	6	21	M	Filler	48	4	recently	11	267.0	NA
130	6	21	M	Filler	48	4	gave	12	266.0	NA
130	6	21	M	Filler	48	4	birth	13	533.0	NA
130	6	21	M	Filler	48	4	to	14	350.0	NA
130	6	21	M	Filler	48	4	twins.	15	333.0	NA
130	6	21	M	Question	48	4	NA	NA	1102.0	1
131	6	21	M	Filler	46	4	The	1	495.0	NA
131	6	21	M	Filler	46	4	preacher	2	1100.0	NA
131	6	21	M	Filler	46	4	of	3	600.0	NA
131	6	21	M	Filler	46	4	the	4	318.0	NA
131	6	21	M	Filler	46	4	congregation	5	266.0	NA
131	6	21	M	Filler	46	4	had	6	300.0	NA
131	6	21	M	Filler	46	4	given	7	267.0	NA
131	6	21	M	Filler	46	4	a	8	284.0	NA
131	6	21	M	Filler	46	4	sermon	9	266.0	NA
131	6	21	M	Filler	46	4	at	10	300.0	NA
131	6	21	M	Filler	46	4	a	11	250.0	NA
131	6	21	M	Filler	46	4	local	12	300.0	NA
131	6	21	M	Filler	46	4	school.	13	267.0	NA
131	6	21	M	Question	46	4	NA	NA	3800.0	1
132	6	21	M	Filler	64	4	Because	1	394.0	NA
132	6	21	M	Filler	64	4	a	2	168.0	NA
132	6	21	M	Filler	64	4	fire	3	166.0	NA
132	6	21	M	Filler	64	4	alarm	4	167.0	NA
132	6	21	M	Filler	64	4	interrupted	5	267.0	NA
132	6	21	M	Filler	64	4	the	6	184.0	NA
132	6	21	M	Filler	64	4	exam	7	199.0	NA
132	6	21	M	Filler	64	4	the	8	167.0	NA
132	6	21	M	Filler	64	4	scores	9	250.0	NA
132	6	21	M	Filler	64	4	were	10	666.0	NA
132	6	21	M	Filler	64	4	disqualified.	11	1084.0	NA
132	6	21	M	Question	64	4	NA	NA	1701.0	1
133	6	21	M	swets	28	3	The	1	445.0	NA
133	6	21	M	swets	28	3	nephew	2	334.0	NA
133	6	21	M	swets	28	3	of	3	232.0	NA
133	6	21	M	swets	28	3	the	4	402.0	NA
133	6	21	M	swets	28	3	baroness	5	483.0	NA
133	6	21	M	swets	28	3	who	6	416.0	NA
133	6	21	M	swets	28	3	admired	7	435.0	NA
133	6	21	M	swets	28	3	himself	8	733.0	NA
133	6	21	M	swets	28	3	an	9	1017.0	NA
133	6	21	M	swets	28	3	inordinate	10	433.0	NA
133	6	21	M	swets	28	3	amount	11	334.0	NA
133	6	21	M	swets	28	3	enjoyed	12	283.0	NA
133	6	21	M	swets	28	3	all	13	266.0	NA
133	6	21	M	swets	28	3	the	14	785.0	NA
133	6	21	M	swets	28	3	attention.	15	468.0	NA
133	6	21	M	Question	28	3	NA	NA	1599.0	1
134	6	21	M	Filler	110	6	While	1	344.0	NA
134	6	21	M	Filler	110	6	the	2	218.0	NA
134	6	21	M	Filler	110	6	lawyer	3	166.0	NA
134	6	21	M	Filler	110	6	was	4	100.0	NA
134	6	21	M	Filler	110	6	reading	5	69.0	NA
134	6	21	M	Filler	110	6	the	6	116.0	NA
134	6	21	M	Filler	110	6	will	7	100.0	NA
134	6	21	M	Filler	110	6	the	8	284.0	NA
134	6	21	M	Filler	110	6	contract	9	232.0	NA
134	6	21	M	Filler	110	6	remained	10	200.0	NA
134	6	21	M	Filler	110	6	on	11	468.0	NA
134	6	21	M	Filler	110	6	the	12	333.0	NA
134	6	21	M	Filler	110	6	desk.	13	300.0	NA
134	6	21	M	Question	110	6	NA	NA	1450.0	1
135	6	21	M	swets	4	3	The	1	311.0	NA
135	6	21	M	swets	4	3	father	2	167.0	NA
135	6	21	M	swets	4	3	of	3	133.0	NA
135	6	21	M	swets	4	3	the	4	151.0	NA
135	6	21	M	swets	4	3	bride	5	199.0	NA
135	6	21	M	swets	4	3	who	6	167.0	NA
135	6	21	M	swets	4	3	embarrassed	7	199.0	NA
135	6	21	M	swets	4	3	himself	8	234.0	NA
135	6	21	M	swets	4	3	at	9	666.0	NA
135	6	21	M	swets	4	3	the	10	383.0	NA
135	6	21	M	swets	4	3	reception	11	234.0	NA
135	6	21	M	swets	4	3	was	12	266.0	NA
135	6	21	M	swets	4	3	complaining	13	300.0	NA
135	6	21	M	swets	4	3	to	14	250.0	NA
135	6	21	M	swets	4	3	the	15	217.0	NA
135	6	21	M	swets	4	3	priest.	16	234.0	NA
135	6	21	M	Question	4	3	NA	NA	1100.0	1
136	6	21	M	Filler	115	6	As	1	362.0	NA
136	6	21	M	Filler	115	6	Elaine	2	167.0	NA
136	6	21	M	Filler	115	6	and	3	233.0	NA
136	6	21	M	Filler	115	6	Robert	4	201.0	NA
136	6	21	M	Filler	115	6	fought	5	217.0	NA
136	6	21	M	Filler	115	6	the	6	217.0	NA
136	6	21	M	Filler	115	6	mosquitoes	7	182.0	NA
136	6	21	M	Filler	115	6	whined	8	166.0	NA
136	6	21	M	Filler	115	6	annoyingly.	9	1235.0	NA
136	6	21	M	Question	115	6	NA	NA	1549.0	1
137	6	21	M	swets	19	3	The	1	878.0	NA
137	6	21	M	swets	19	3	mistress	2	234.0	NA
137	6	21	M	swets	19	3	of	3	267.0	NA
137	6	21	M	swets	19	3	the	4	216.0	NA
137	6	21	M	swets	19	3	actor	5	266.0	NA
137	6	21	M	swets	19	3	who	6	284.0	NA
137	6	21	M	swets	19	3	hated	7	333.0	NA
137	6	21	M	swets	19	3	herself	8	301.0	NA
137	6	21	M	swets	19	3	for	9	500.0	NA
137	6	21	M	swets	19	3	lying	10	602.0	NA
137	6	21	M	swets	19	3	left	11	532.0	NA
137	6	21	M	swets	19	3	town	12	766.0	NA
137	6	21	M	swets	19	3	in	13	500.0	NA
137	6	21	M	swets	19	3	a	14	618.0	NA
137	6	21	M	swets	19	3	hurry.	15	366.0	NA
137	6	21	M	Question	19	3	NA	NA	2252.0	1
138	6	21	M	Filler	107	5	The	1	695.0	NA
138	6	21	M	Filler	107	5	citizens	2	367.0	NA
138	6	21	M	Filler	107	5	were	3	300.0	NA
138	6	21	M	Filler	107	5	dissatisfied	4	333.0	NA
138	6	21	M	Filler	107	5	with	5	301.0	NA
138	6	21	M	Filler	107	5	the	6	216.0	NA
138	6	21	M	Filler	107	5	mayor	7	201.0	NA
138	6	21	M	Filler	107	5	of	8	233.0	NA
138	6	21	M	Filler	107	5	town	9	200.0	NA
138	6	21	M	Filler	107	5	because	10	266.0	NA
138	6	21	M	Filler	107	5	he	11	234.0	NA
138	6	21	M	Filler	107	5	had	12	234.0	NA
138	6	21	M	Filler	107	5	little	13	233.0	NA
138	6	21	M	Filler	107	5	experience.	14	249.0	NA
138	6	21	M	Question	107	5	NA	NA	1401.0	1
139	6	21	M	Filler	111	6	While	1	278.0	NA
139	6	21	M	Filler	111	6	the	2	200.0	NA
139	6	21	M	Filler	111	6	clown	3	165.0	NA
139	6	21	M	Filler	111	6	juggled	4	168.0	NA
139	6	21	M	Filler	111	6	the	5	166.0	NA
139	6	21	M	Filler	111	6	balls	6	201.0	NA
139	6	21	M	Filler	111	6	fell	7	299.0	NA
139	6	21	M	Filler	111	6	to	8	201.0	NA
139	6	21	M	Filler	111	6	the	9	250.0	NA
139	6	21	M	Filler	111	6	ground.	10	283.0	NA
139	6	21	M	Question	111	6	NA	NA	1252.0	1
140	6	21	M	Filler	140	7	The	1	346.0	NA
140	6	21	M	Filler	140	7	investigators	2	267.0	NA
140	6	21	M	Filler	140	7	asked	3	166.0	NA
140	6	21	M	Filler	140	7	which	4	200.0	NA
140	6	21	M	Filler	140	7	mansion	5	233.0	NA
140	6	21	M	Filler	140	7	the	6	217.0	NA
140	6	21	M	Filler	140	7	owner	7	234.0	NA
140	6	21	M	Filler	140	7	sold	8	200.0	NA
140	6	21	M	Filler	140	7	and	9	200.0	NA
140	6	21	M	Filler	140	7	didn't	10	282.0	NA
140	6	21	M	Filler	140	7	repair	11	267.0	NA
140	6	21	M	Filler	140	7	ten	12	234.0	NA
140	6	21	M	Filler	140	7	years	13	499.0	NA
140	6	21	M	Filler	140	7	ago.	14	334.0	NA
140	6	21	M	Question	140	7	NA	NA	1800.0	1
141	6	21	M	swets	5	1	The	1	428.0	NA
141	6	21	M	swets	5	1	uncle	2	217.0	NA
141	6	21	M	swets	5	1	of	3	134.0	NA
141	6	21	M	swets	5	1	the	4	232.0	NA
141	6	21	M	swets	5	1	bishop	5	168.0	NA
141	6	21	M	swets	5	1	who	6	117.0	NA
141	6	21	M	swets	5	1	injured	7	134.0	NA
141	6	21	M	swets	5	1	himself	8	166.0	NA
141	6	21	M	swets	5	1	last	9	167.0	NA
141	6	21	M	swets	5	1	summer	10	199.0	NA
141	6	21	M	swets	5	1	was	11	167.0	NA
141	6	21	M	swets	5	1	concerned	12	167.0	NA
141	6	21	M	swets	5	1	about	13	183.0	NA
141	6	21	M	swets	5	1	the	14	117.0	NA
141	6	21	M	swets	5	1	infection.	15	200.0	NA
141	6	21	M	Question	5	1	NA	NA	2850.0	0
142	6	21	M	Filler	86	5	The	1	296.0	NA
142	6	21	M	Filler	86	5	family's	2	183.0	NA
142	6	21	M	Filler	86	5	television	3	67.0	NA
142	6	21	M	Filler	86	5	stopped	4	133.0	NA
142	6	21	M	Filler	86	5	working	5	133.0	NA
142	6	21	M	Filler	86	5	two	6	352.0	NA
142	6	21	M	Filler	86	5	days	7	199.0	NA
142	6	21	M	Filler	86	5	after	8	300.0	NA
142	6	21	M	Filler	86	5	the	9	218.0	NA
142	6	21	M	Filler	86	5	warranty	10	500.0	NA
142	6	21	M	Filler	86	5	expired.	11	1199.0	NA
142	6	21	M	Question	86	5	NA	NA	3052.0	1
143	6	21	M	Filler	82	5	The	1	329.0	NA
143	6	21	M	Filler	82	5	patient's	2	150.0	NA
143	6	21	M	Filler	82	5	seizures	3	150.0	NA
143	6	21	M	Filler	82	5	appeared	4	165.0	NA
143	6	21	M	Filler	82	5	to	5	434.0	NA
143	6	21	M	Filler	82	5	have	6	235.0	NA
143	6	21	M	Filler	82	5	been	7	198.0	NA
143	6	21	M	Filler	82	5	eliminated	8	234.0	NA
143	6	21	M	Filler	82	5	by	9	233.0	NA
143	6	21	M	Filler	82	5	the	10	184.0	NA
143	6	21	M	Filler	82	5	surgery.	11	217.0	NA
143	6	21	M	Question	82	5	NA	NA	2000.0	1
