trial	subj	age	gender	stimulustype	item	condition	word	position	rt	correct
0	8	21	F	Filler	67	4	The	1	1080.0	NA
0	8	21	F	Filler	67	4	restaurant	2	350.0	NA
0	8	21	F	Filler	67	4	was	3	381.0	NA
0	8	21	F	Filler	67	4	famous	4	367.0	NA
0	8	21	F	Filler	67	4	for	5	335.0	NA
0	8	21	F	Filler	67	4	its	6	351.0	NA
0	8	21	F	Filler	67	4	French	7	416.0	NA
0	8	21	F	Filler	67	4	pastries	8	450.0	NA
0	8	21	F	Filler	67	4	and	9	402.0	NA
0	8	21	F	Filler	67	4	fine	10	330.0	NA
0	8	21	F	Filler	67	4	wines.	11	319.0	NA
0	8	21	F	Question	67	4	NA	NA	1432.0	1
1	8	21	F	swets	19	2	The	1	764.0	NA
1	8	21	F	swets	19	2	mistress	2	317.0	NA
1	8	21	F	swets	19	2	of	3	300.0	NA
1	8	21	F	swets	19	2	the	4	450.0	NA
1	8	21	F	swets	19	2	actor	5	347.0	NA
1	8	21	F	swets	19	2	who	6	286.0	NA
1	8	21	F	swets	19	2	hated	7	315.0	NA
1	8	21	F	swets	19	2	himself	8	318.0	NA
1	8	21	F	swets	19	2	for	9	583.0	NA
1	8	21	F	swets	19	2	lying	10	300.0	NA
1	8	21	F	swets	19	2	left	11	267.0	NA
1	8	21	F	swets	19	2	town	12	584.0	NA
1	8	21	F	swets	19	2	in	13	632.0	NA
1	8	21	F	swets	19	2	a	14	368.0	NA
1	8	21	F	swets	19	2	hurry.	15	531.0	NA
1	8	21	F	Question	19	2	NA	NA	2236.0	1
2	8	21	F	Filler	60	4	The	1	814.0	NA
2	8	21	F	Filler	60	4	newlyweds	2	316.0	NA
2	8	21	F	Filler	60	4	were	3	648.0	NA
2	8	21	F	Filler	60	4	nervous	4	986.0	NA
2	8	21	F	Filler	60	4	about	5	383.0	NA
2	8	21	F	Filler	60	4	their	6	349.0	NA
2	8	21	F	Filler	60	4	new	7	368.0	NA
2	8	21	F	Filler	60	4	life	8	332.0	NA
2	8	21	F	Filler	60	4	together.	9	333.0	NA
2	8	21	F	Question	60	4	NA	NA	1336.0	1
3	8	21	F	swets	4	2	The	1	427.0	NA
3	8	21	F	swets	4	2	father	2	287.0	NA
3	8	21	F	swets	4	2	of	3	300.0	NA
3	8	21	F	swets	4	2	the	4	265.0	NA
3	8	21	F	swets	4	2	bride	5	336.0	NA
3	8	21	F	swets	4	2	who	6	383.0	NA
3	8	21	F	swets	4	2	embarrassed	7	582.0	NA
3	8	21	F	swets	4	2	herself	8	402.0	NA
3	8	21	F	swets	4	2	at	9	384.0	NA
3	8	21	F	swets	4	2	the	10	331.0	NA
3	8	21	F	swets	4	2	reception	11	285.0	NA
3	8	21	F	swets	4	2	was	12	367.0	NA
3	8	21	F	swets	4	2	complaining	13	368.0	NA
3	8	21	F	swets	4	2	to	14	400.0	NA
3	8	21	F	swets	4	2	the	15	364.0	NA
3	8	21	F	swets	4	2	priest.	16	369.0	NA
3	8	21	F	Question	4	2	NA	NA	3865.0	1
4	8	21	F	Filler	107	5	The	1	1013.0	NA
4	8	21	F	Filler	107	5	citizens	2	298.0	NA
4	8	21	F	Filler	107	5	were	3	316.0	NA
4	8	21	F	Filler	107	5	dissatisfied	4	269.0	NA
4	8	21	F	Filler	107	5	with	5	384.0	NA
4	8	21	F	Filler	107	5	the	6	317.0	NA
4	8	21	F	Filler	107	5	mayor	7	384.0	NA
4	8	21	F	Filler	107	5	of	8	400.0	NA
4	8	21	F	Filler	107	5	town	9	315.0	NA
4	8	21	F	Filler	107	5	because	10	334.0	NA
4	8	21	F	Filler	107	5	he	11	332.0	NA
4	8	21	F	Filler	107	5	had	12	303.0	NA
4	8	21	F	Filler	107	5	little	13	299.0	NA
4	8	21	F	Filler	107	5	experience.	14	348.0	NA
4	8	21	F	Question	107	5	NA	NA	1369.0	1
5	8	21	F	Filler	106	5	On	1	364.0	NA
5	8	21	F	Filler	106	5	the	2	265.0	NA
5	8	21	F	Filler	106	5	last	3	282.0	NA
5	8	21	F	Filler	106	5	night	4	316.0	NA
5	8	21	F	Filler	106	5	of	5	268.0	NA
5	8	21	F	Filler	106	5	summer	6	266.0	NA
5	8	21	F	Filler	106	5	camp	7	316.0	NA
5	8	21	F	Filler	106	5	the	8	317.0	NA
5	8	21	F	Filler	106	5	counselors	9	502.0	NA
5	8	21	F	Filler	106	5	let	10	402.0	NA
5	8	21	F	Filler	106	5	the	11	299.0	NA
5	8	21	F	Filler	106	5	children	12	365.0	NA
5	8	21	F	Filler	106	5	stay	13	386.0	NA
5	8	21	F	Filler	106	5	up	14	349.0	NA
5	8	21	F	Filler	106	5	until	15	432.0	NA
5	8	21	F	Filler	106	5	midnight.	16	367.0	NA
5	8	21	F	Question	106	5	NA	NA	2350.0	1
6	8	21	F	swets	7	2	The	1	563.0	NA
6	8	21	F	swets	7	2	nephew	2	317.0	NA
6	8	21	F	swets	7	2	of	3	300.0	NA
6	8	21	F	swets	7	2	the	4	300.0	NA
6	8	21	F	swets	7	2	waitress	5	250.0	NA
6	8	21	F	swets	7	2	who	6	300.0	NA
6	8	21	F	swets	7	2	hurt	7	251.0	NA
6	8	21	F	swets	7	2	herself	8	283.0	NA
6	8	21	F	swets	7	2	on	9	350.0	NA
6	8	21	F	swets	7	2	the	10	267.0	NA
6	8	21	F	swets	7	2	bicycle	11	300.0	NA
6	8	21	F	swets	7	2	was	12	317.0	NA
6	8	21	F	swets	7	2	angry	13	316.0	NA
6	8	21	F	swets	7	2	about	14	268.0	NA
6	8	21	F	swets	7	2	the	15	316.0	NA
6	8	21	F	swets	7	2	incident.	16	331.0	NA
6	8	21	F	Question	7	2	NA	NA	5771.0	1
7	8	21	F	Filler	42	4	After	1	530.0	NA
7	8	21	F	Filler	42	4	dinner	2	331.0	NA
7	8	21	F	Filler	42	4	the	3	270.0	NA
7	8	21	F	Filler	42	4	children	4	263.0	NA
7	8	21	F	Filler	42	4	gathered	5	269.0	NA
7	8	21	F	Filler	42	4	in	6	264.0	NA
7	8	21	F	Filler	42	4	a	7	269.0	NA
7	8	21	F	Filler	42	4	circle	8	264.0	NA
7	8	21	F	Filler	42	4	to	9	270.0	NA
7	8	21	F	Filler	42	4	listen	10	267.0	NA
7	8	21	F	Filler	42	4	to	11	267.0	NA
7	8	21	F	Filler	42	4	their	12	283.0	NA
7	8	21	F	Filler	42	4	grandmother's	13	348.0	NA
7	8	21	F	Filler	42	4	stories	14	602.0	NA
7	8	21	F	Filler	42	4	about	15	451.0	NA
7	8	21	F	Filler	42	4	the	16	350.0	NA
7	8	21	F	Filler	42	4	good	17	283.0	NA
7	8	21	F	Filler	42	4	old	18	333.0	NA
7	8	21	F	Filler	42	4	days.	19	317.0	NA
7	8	21	F	Question	42	4	NA	NA	2134.0	1
8	8	21	F	swets	18	1	The	1	1463.0	NA
8	8	21	F	swets	18	1	nephew	2	301.0	NA
8	8	21	F	swets	18	1	of	3	284.0	NA
8	8	21	F	swets	18	1	the	4	249.0	NA
8	8	21	F	swets	18	1	fisherman	5	298.0	NA
8	8	21	F	swets	18	1	who	6	386.0	NA
8	8	21	F	swets	18	1	drowned	7	584.0	NA
8	8	21	F	swets	18	1	himself	8	366.0	NA
8	8	21	F	swets	18	1	in	9	433.0	NA
8	8	21	F	swets	18	1	the	10	351.0	NA
8	8	21	F	swets	18	1	ocean	11	331.0	NA
8	8	21	F	swets	18	1	didn't	12	383.0	NA
8	8	21	F	swets	18	1	know	13	387.0	NA
8	8	21	F	swets	18	1	about	14	318.0	NA
8	8	21	F	swets	18	1	the	15	350.0	NA
8	8	21	F	swets	18	1	tricky	16	364.0	NA
8	8	21	F	swets	18	1	current.	17	1803.0	NA
8	8	21	F	Question	18	1	NA	NA	1831.0	1
9	8	21	F	Filler	137	7	When	1	396.0	NA
9	8	21	F	Filler	137	7	Leslie	2	267.0	NA
9	8	21	F	Filler	137	7	was	3	283.0	NA
9	8	21	F	Filler	137	7	sneezing	4	284.0	NA
9	8	21	F	Filler	137	7	her	5	413.0	NA
9	8	21	F	Filler	137	7	friends	6	320.0	NA
9	8	21	F	Filler	137	7	laughed	7	301.0	NA
9	8	21	F	Filler	137	7	at	8	317.0	NA
9	8	21	F	Filler	137	7	her.	9	284.0	NA
9	8	21	F	Question	137	7	NA	NA	1697.0	1
10	8	21	F	Filler	37	4	The	1	481.0	NA
10	8	21	F	Filler	37	4	party	2	265.0	NA
10	8	21	F	Filler	37	4	attracted	3	235.0	NA
10	8	21	F	Filler	37	4	the	4	400.0	NA
10	8	21	F	Filler	37	4	fraternity	5	351.0	NA
10	8	21	F	Filler	37	4	members	6	366.0	NA
10	8	21	F	Filler	37	4	whose	7	317.0	NA
10	8	21	F	Filler	37	4	house	8	283.0	NA
10	8	21	F	Filler	37	4	had	9	300.0	NA
10	8	21	F	Filler	37	4	been	10	298.0	NA
10	8	21	F	Filler	37	4	seized	11	386.0	NA
10	8	21	F	Filler	37	4	by	12	299.0	NA
10	8	21	F	Filler	37	4	drug	13	315.0	NA
10	8	21	F	Filler	37	4	agents.	14	334.0	NA
10	8	21	F	Question	37	4	NA	NA	2118.0	1
11	8	21	F	Filler	84	5	While	1	378.0	NA
11	8	21	F	Filler	84	5	talking	2	283.0	NA
11	8	21	F	Filler	84	5	to	3	286.0	NA
11	8	21	F	Filler	84	5	his	4	334.0	NA
11	8	21	F	Filler	84	5	sister	5	315.0	NA
11	8	21	F	Filler	84	5	the	6	318.0	NA
11	8	21	F	Filler	84	5	bishop	7	267.0	NA
11	8	21	F	Filler	84	5	with	8	314.0	NA
11	8	21	F	Filler	84	5	the	9	300.0	NA
11	8	21	F	Filler	84	5	funny	10	285.0	NA
11	8	21	F	Filler	84	5	eyebrows	11	300.0	NA
11	8	21	F	Filler	84	5	advocated	12	400.0	NA
11	8	21	F	Filler	84	5	strange	13	301.0	NA
11	8	21	F	Filler	84	5	beliefs.	14	399.0	NA
11	8	21	F	Question	84	5	NA	NA	2268.0	1
12	8	21	F	Filler	55	4	The	1	914.0	NA
12	8	21	F	Filler	55	4	people	2	333.0	NA
12	8	21	F	Filler	55	4	certainly	3	316.0	NA
12	8	21	F	Filler	55	4	admired	4	299.0	NA
12	8	21	F	Filler	55	4	the	5	302.0	NA
12	8	21	F	Filler	55	4	wife	6	267.0	NA
12	8	21	F	Filler	55	4	of	7	284.0	NA
12	8	21	F	Filler	55	4	the	8	280.0	NA
12	8	21	F	Filler	55	4	janitor	9	300.0	NA
12	8	21	F	Filler	55	4	because	10	384.0	NA
12	8	21	F	Filler	55	4	she	11	335.0	NA
12	8	21	F	Filler	55	4	educated	12	331.0	NA
12	8	21	F	Filler	55	4	herself	13	319.0	NA
12	8	21	F	Filler	55	4	at	14	330.0	NA
12	8	21	F	Filler	55	4	night.	15	287.0	NA
12	8	21	F	Question	55	4	NA	NA	1964.0	1
13	8	21	F	swets	35	3	The	1	447.0	NA
13	8	21	F	swets	35	3	landlady	2	366.0	NA
13	8	21	F	swets	35	3	of	3	319.0	NA
13	8	21	F	swets	35	3	the	4	314.0	NA
13	8	21	F	swets	35	3	businessman	5	633.0	NA
13	8	21	F	swets	35	3	who	6	302.0	NA
13	8	21	F	swets	35	3	had	7	349.0	NA
13	8	21	F	swets	35	3	locked	8	335.0	NA
13	8	21	F	swets	35	3	herself	9	316.0	NA
13	8	21	F	swets	35	3	in	10	1500.0	NA
13	8	21	F	swets	35	3	the	11	352.0	NA
13	8	21	F	swets	35	3	office	12	349.0	NA
13	8	21	F	swets	35	3	received	13	465.0	NA
13	8	21	F	swets	35	3	a	14	319.0	NA
13	8	21	F	swets	35	3	phone	15	383.0	NA
13	8	21	F	swets	35	3	call.	16	284.0	NA
13	8	21	F	Question	35	3	NA	NA	3632.0	0
14	8	21	F	Filler	75	5	The	1	530.0	NA
14	8	21	F	Filler	75	5	musician	2	364.0	NA
14	8	21	F	Filler	75	5	shocked	3	918.0	NA
14	8	21	F	Filler	75	5	the	4	450.0	NA
14	8	21	F	Filler	75	5	audience	5	368.0	NA
14	8	21	F	Filler	75	5	because	6	432.0	NA
14	8	21	F	Filler	75	5	they	7	370.0	NA
14	8	21	F	Filler	75	5	did	8	516.0	NA
14	8	21	F	Filler	75	5	not	9	517.0	NA
14	8	21	F	Filler	75	5	realize	10	464.0	NA
14	8	21	F	Filler	75	5	what	11	384.0	NA
14	8	21	F	Filler	75	5	these	12	319.0	NA
14	8	21	F	Filler	75	5	shows	13	267.0	NA
14	8	21	F	Filler	75	5	were	14	300.0	NA
14	8	21	F	Filler	75	5	like.	15	298.0	NA
14	8	21	F	Question	75	5	NA	NA	2468.0	1
15	8	21	F	Filler	139	7	Laurie	1	712.0	NA
15	8	21	F	Filler	139	7	asked	2	453.0	NA
15	8	21	F	Filler	139	7	which	3	383.0	NA
15	8	21	F	Filler	139	7	truck	4	366.0	NA
15	8	21	F	Filler	139	7	the	5	397.0	NA
15	8	21	F	Filler	139	7	dealership	6	353.0	NA
15	8	21	F	Filler	139	7	sold	7	398.0	NA
15	8	21	F	Filler	139	7	but	8	366.0	NA
15	8	21	F	Filler	139	7	didn't	9	434.0	NA
15	8	21	F	Filler	139	7	paint	10	385.0	NA
15	8	21	F	Filler	139	7	completely.	11	884.0	NA
15	8	21	F	Question	139	7	NA	NA	2101.0	1
16	8	21	F	swets	13	2	The	1	377.0	NA
16	8	21	F	swets	13	2	great-aunt	2	393.0	NA
16	8	21	F	swets	13	2	of	3	391.0	NA
16	8	21	F	swets	13	2	the	4	320.0	NA
16	8	21	F	swets	13	2	policeman	5	350.0	NA
16	8	21	F	swets	13	2	who	6	349.0	NA
16	8	21	F	swets	13	2	treated	7	299.0	NA
16	8	21	F	swets	13	2	himself	8	335.0	NA
16	8	21	F	swets	13	2	after	9	533.0	NA
16	8	21	F	swets	13	2	the	10	514.0	NA
16	8	21	F	swets	13	2	accident	11	419.0	NA
16	8	21	F	swets	13	2	was	12	350.0	NA
16	8	21	F	swets	13	2	watching	13	632.0	NA
16	8	21	F	swets	13	2	the	14	402.0	NA
16	8	21	F	swets	13	2	news.	15	349.0	NA
16	8	21	F	Question	13	2	NA	NA	1899.0	1
17	8	21	F	Filler	122	6	They	1	396.0	NA
17	8	21	F	Filler	122	6	don't	2	348.0	NA
17	8	21	F	Filler	122	6	know	3	285.0	NA
17	8	21	F	Filler	122	6	which	4	316.0	NA
17	8	21	F	Filler	122	6	family	5	283.0	NA
17	8	21	F	Filler	122	6	the	6	303.0	NA
17	8	21	F	Filler	122	6	hijackers	7	381.0	NA
17	8	21	F	Filler	122	6	held	8	299.0	NA
17	8	21	F	Filler	122	6	hostage	9	303.0	NA
17	8	21	F	Filler	122	6	but	10	317.0	NA
17	8	21	F	Filler	122	6	didn't	11	331.0	NA
17	8	21	F	Filler	122	6	hurt	12	317.0	NA
17	8	21	F	Filler	122	6	the	13	319.0	NA
17	8	21	F	Filler	122	6	children	14	365.0	NA
17	8	21	F	Filler	122	6	of	15	385.0	NA
17	8	21	F	Filler	122	6	too	16	300.0	NA
17	8	21	F	Filler	122	6	much.	17	399.0	NA
17	8	21	F	Question	122	6	NA	NA	2333.0	1
18	8	21	F	swets	16	2	The	1	11.0	NA
18	8	21	F	swets	16	2	widow	2	801.0	NA
18	8	21	F	swets	16	2	of	3	300.0	NA
18	8	21	F	swets	16	2	the	4	334.0	NA
18	8	21	F	swets	16	2	general	5	281.0	NA
18	8	21	F	swets	16	2	who	6	385.0	NA
18	8	21	F	swets	16	2	sacrificed	7	333.0	NA
18	8	21	F	swets	16	2	himself	8	334.0	NA
18	8	21	F	swets	16	2	for	9	368.0	NA
18	8	21	F	swets	16	2	the	10	348.0	NA
18	8	21	F	swets	16	2	cause	11	335.0	NA
18	8	21	F	swets	16	2	was	12	300.0	NA
18	8	21	F	swets	16	2	the	13	399.0	NA
18	8	21	F	swets	16	2	subject	14	367.0	NA
18	8	21	F	swets	16	2	of	15	350.0	NA
18	8	21	F	swets	16	2	the	16	300.0	NA
18	8	21	F	swets	16	2	biography.	17	950.0	NA
18	8	21	F	Question	16	2	NA	NA	2601.0	1
19	8	21	F	Filler	104	5	Despite	1	562.0	NA
19	8	21	F	Filler	104	5	the	2	332.0	NA
19	8	21	F	Filler	104	5	relative	3	300.0	NA
19	8	21	F	Filler	104	5	lack	4	334.0	NA
19	8	21	F	Filler	104	5	of	5	250.0	NA
19	8	21	F	Filler	104	5	rain	6	367.0	NA
19	8	21	F	Filler	104	5	the	7	767.0	NA
19	8	21	F	Filler	104	5	farmer	8	367.0	NA
19	8	21	F	Filler	104	5	harvested	9	399.0	NA
19	8	21	F	Filler	104	5	much	10	300.0	NA
19	8	21	F	Filler	104	5	wheat.	11	316.0	NA
19	8	21	F	Question	104	5	NA	NA	1401.0	1
20	8	21	F	Filler	144	7	The	1	346.0	NA
20	8	21	F	Filler	144	7	apple	2	382.0	NA
20	8	21	F	Filler	144	7	and	3	317.0	NA
20	8	21	F	Filler	144	7	potato	4	266.0	NA
20	8	21	F	Filler	144	7	went	5	251.0	NA
20	8	21	F	Filler	144	7	rotten	6	267.0	NA
20	8	21	F	Filler	144	7	after	7	283.0	NA
20	8	21	F	Filler	144	7	a	8	234.0	NA
20	8	21	F	Filler	144	7	week.	9	267.0	NA
20	8	21	F	Question	144	7	NA	NA	1400.0	1
21	8	21	F	Filler	78	5	The	1	912.0	NA
21	8	21	F	Filler	78	5	customer	2	249.0	NA
21	8	21	F	Filler	78	5	complimented	3	267.0	NA
21	8	21	F	Filler	78	5	the	4	350.0	NA
21	8	21	F	Filler	78	5	store	5	350.0	NA
21	8	21	F	Filler	78	5	keeper	6	249.0	NA
21	8	21	F	Filler	78	5	with	7	368.0	NA
21	8	21	F	Filler	78	5	the	8	250.0	NA
21	8	21	F	Filler	78	5	new	9	284.0	NA
21	8	21	F	Filler	78	5	stock.	10	283.0	NA
21	8	21	F	Question	78	5	NA	NA	1068.0	1
22	8	21	F	swets	15	1	The	1	428.0	NA
22	8	21	F	swets	15	1	sister	2	284.0	NA
22	8	21	F	swets	15	1	of	3	234.0	NA
22	8	21	F	swets	15	1	the	4	234.0	NA
22	8	21	F	swets	15	1	beautician	5	267.0	NA
22	8	21	F	swets	15	1	who	6	282.0	NA
22	8	21	F	swets	15	1	cut	7	267.0	NA
22	8	21	F	swets	15	1	herself	8	251.0	NA
22	8	21	F	swets	15	1	on	9	332.0	NA
22	8	21	F	swets	15	1	the	10	267.0	NA
22	8	21	F	swets	15	1	broken	11	283.0	NA
22	8	21	F	swets	15	1	glass	12	300.0	NA
22	8	21	F	swets	15	1	phoned	13	250.0	NA
22	8	21	F	swets	15	1	for	14	268.0	NA
22	8	21	F	swets	15	1	a	15	250.0	NA
22	8	21	F	swets	15	1	doctor.	16	283.0	NA
22	8	21	F	Question	15	1	NA	NA	1016.0	1
23	8	21	F	Filler	94	5	After	1	377.0	NA
23	8	21	F	Filler	94	5	months	2	284.0	NA
23	8	21	F	Filler	94	5	of	3	266.0	NA
23	8	21	F	Filler	94	5	preparation	4	217.0	NA
23	8	21	F	Filler	94	5	the	5	516.0	NA
23	8	21	F	Filler	94	5	ballerina	6	251.0	NA
23	8	21	F	Filler	94	5	was	7	317.0	NA
23	8	21	F	Filler	94	5	getting	8	267.0	NA
23	8	21	F	Filler	94	5	ready	9	300.0	NA
23	8	21	F	Filler	94	5	for	10	234.0	NA
23	8	21	F	Filler	94	5	opening	11	267.0	NA
23	8	21	F	Filler	94	5	night.	12	367.0	NA
23	8	21	F	Question	94	5	NA	NA	4433.0	1
24	8	21	F	swets	28	2	The	1	561.0	NA
24	8	21	F	swets	28	2	nephew	2	350.0	NA
24	8	21	F	swets	28	2	of	3	284.0	NA
24	8	21	F	swets	28	2	the	4	267.0	NA
24	8	21	F	swets	28	2	baroness	5	501.0	NA
24	8	21	F	swets	28	2	who	6	333.0	NA
24	8	21	F	swets	28	2	admired	7	285.0	NA
24	8	21	F	swets	28	2	herself	8	298.0	NA
24	8	21	F	swets	28	2	an	9	301.0	NA
24	8	21	F	swets	28	2	inordinate	10	965.0	NA
24	8	21	F	swets	28	2	amount	11	418.0	NA
24	8	21	F	swets	28	2	enjoyed	12	434.0	NA
24	8	21	F	swets	28	2	all	13	348.0	NA
24	8	21	F	swets	28	2	the	14	319.0	NA
24	8	21	F	swets	28	2	attention.	15	334.0	NA
24	8	21	F	Question	28	2	NA	NA	1366.0	1
25	8	21	F	Filler	88	5	The	1	628.0	NA
25	8	21	F	Filler	88	5	woman's	2	333.0	NA
25	8	21	F	Filler	88	5	posture	3	334.0	NA
25	8	21	F	Filler	88	5	began	4	284.0	NA
25	8	21	F	Filler	88	5	to	5	318.0	NA
25	8	21	F	Filler	88	5	go	6	267.0	NA
25	8	21	F	Filler	88	5	bad	7	315.0	NA
25	8	21	F	Filler	88	5	because	8	268.0	NA
25	8	21	F	Filler	88	5	of	9	316.0	NA
25	8	21	F	Filler	88	5	her	10	283.0	NA
25	8	21	F	Filler	88	5	constant	11	351.0	NA
25	8	21	F	Filler	88	5	slumping.	12	766.0	NA
25	8	21	F	Question	88	5	NA	NA	1702.0	1
26	8	21	F	Filler	80	5	The	1	779.0	NA
26	8	21	F	Filler	80	5	stepfather	2	349.0	NA
26	8	21	F	Filler	80	5	of	3	350.0	NA
26	8	21	F	Filler	80	5	the	4	333.0	NA
26	8	21	F	Filler	80	5	nun	5	335.0	NA
26	8	21	F	Filler	80	5	with	6	316.0	NA
26	8	21	F	Filler	80	5	a	7	284.0	NA
26	8	21	F	Filler	80	5	long	8	283.0	NA
26	8	21	F	Filler	80	5	white	9	267.0	NA
26	8	21	F	Filler	80	5	beard	10	266.0	NA
26	8	21	F	Filler	80	5	became	11	367.0	NA
26	8	21	F	Filler	80	5	very	12	334.0	NA
26	8	21	F	Filler	80	5	ill.	13	398.0	NA
26	8	21	F	Question	80	5	NA	NA	3335.0	1
27	8	21	F	Filler	58	4	The	1	728.0	NA
27	8	21	F	Filler	58	4	white	2	366.0	NA
27	8	21	F	Filler	58	4	dog	3	335.0	NA
27	8	21	F	Filler	58	4	bit	4	551.0	NA
27	8	21	F	Filler	58	4	the	5	365.0	NA
27	8	21	F	Filler	58	4	ankle	6	335.0	NA
27	8	21	F	Filler	58	4	of	7	299.0	NA
27	8	21	F	Filler	58	4	the	8	284.0	NA
27	8	21	F	Filler	58	4	child.	9	315.0	NA
27	8	21	F	Question	58	4	NA	NA	1102.0	1
28	8	21	F	Filler	96	5	The	1	394.0	NA
28	8	21	F	Filler	96	5	evil	2	317.0	NA
28	8	21	F	Filler	96	5	man	3	334.0	NA
28	8	21	F	Filler	96	5	watched	4	217.0	NA
28	8	21	F	Filler	96	5	the	5	317.0	NA
28	8	21	F	Filler	96	5	doorway	6	298.0	NA
28	8	21	F	Filler	96	5	of	7	318.0	NA
28	8	21	F	Filler	96	5	the	8	316.0	NA
28	8	21	F	Filler	96	5	bar	9	300.0	NA
28	8	21	F	Filler	96	5	every	10	284.0	NA
28	8	21	F	Filler	96	5	Friday	11	334.0	NA
28	8	21	F	Filler	96	5	night.	12	334.0	NA
28	8	21	F	Question	96	5	NA	NA	1300.0	1
29	8	21	F	Filler	142	7	The	1	579.0	NA
29	8	21	F	Filler	142	7	cats	2	400.0	NA
29	8	21	F	Filler	142	7	and	3	351.0	NA
29	8	21	F	Filler	142	7	dogs	4	383.0	NA
29	8	21	F	Filler	142	7	glared	5	350.0	NA
29	8	21	F	Filler	142	7	at	6	668.0	NA
29	8	21	F	Filler	142	7	each	7	549.0	NA
29	8	21	F	Filler	142	7	other	8	467.0	NA
29	8	21	F	Filler	142	7	warily.	9	466.0	NA
29	8	21	F	Question	142	7	NA	NA	4735.0	1
30	8	21	F	Filler	130	7	While	1	413.0	NA
30	8	21	F	Filler	130	7	Margo	2	316.0	NA
30	8	21	F	Filler	130	7	bathed	3	283.0	NA
30	8	21	F	Filler	130	7	the	4	284.0	NA
30	8	21	F	Filler	130	7	dog	5	265.0	NA
30	8	21	F	Filler	130	7	barked	6	218.0	NA
30	8	21	F	Filler	130	7	in	7	267.0	NA
30	8	21	F	Filler	130	7	the	8	250.0	NA
30	8	21	F	Filler	130	7	yard.	9	265.0	NA
30	8	21	F	Question	130	7	NA	NA	2569.0	1
31	8	21	F	swets	20	3	The	1	412.0	NA
31	8	21	F	swets	20	3	sister	2	350.0	NA
31	8	21	F	swets	20	3	of	3	265.0	NA
31	8	21	F	swets	20	3	the	4	267.0	NA
31	8	21	F	swets	20	3	count	5	250.0	NA
31	8	21	F	swets	20	3	who	6	350.0	NA
31	8	21	F	swets	20	3	crippled	7	303.0	NA
31	8	21	F	swets	20	3	herself	8	332.0	NA
31	8	21	F	swets	20	3	by	9	416.0	NA
31	8	21	F	swets	20	3	falling	10	301.0	NA
31	8	21	F	swets	20	3	off	11	299.0	NA
31	8	21	F	swets	20	3	a	12	350.0	NA
31	8	21	F	swets	20	3	horse	13	318.0	NA
31	8	21	F	swets	20	3	took	14	351.0	NA
31	8	21	F	swets	20	3	a	15	282.0	NA
31	8	21	F	swets	20	3	long	16	317.0	NA
31	8	21	F	swets	20	3	time	17	400.0	NA
31	8	21	F	swets	20	3	to	18	351.0	NA
31	8	21	F	swets	20	3	get	19	483.0	NA
31	8	21	F	swets	20	3	over	20	433.0	NA
31	8	21	F	swets	20	3	it.	21	433.0	NA
31	8	21	F	Question	20	3	NA	NA	1534.0	0
32	8	21	F	Filler	62	4	After	1	480.0	NA
32	8	21	F	Filler	62	4	much	2	349.0	NA
32	8	21	F	Filler	62	4	deliberation	3	218.0	NA
32	8	21	F	Filler	62	4	the	4	750.0	NA
32	8	21	F	Filler	62	4	jury	5	448.0	NA
32	8	21	F	Filler	62	4	found	6	318.0	NA
32	8	21	F	Filler	62	4	the	7	367.0	NA
32	8	21	F	Filler	62	4	defendant	8	749.0	NA
32	8	21	F	Filler	62	4	not	9	566.0	NA
32	8	21	F	Filler	62	4	guilty.	10	402.0	NA
32	8	21	F	Question	62	4	NA	NA	3334.0	1
33	8	21	F	Filler	143	7	The	1	429.0	NA
33	8	21	F	Filler	143	7	lawyer	2	350.0	NA
33	8	21	F	Filler	143	7	and	3	301.0	NA
33	8	21	F	Filler	143	7	defendant	4	266.0	NA
33	8	21	F	Filler	143	7	whispered	5	316.0	NA
33	8	21	F	Filler	143	7	furiously	6	300.0	NA
33	8	21	F	Filler	143	7	during	7	433.0	NA
33	8	21	F	Filler	143	7	the	8	234.0	NA
33	8	21	F	Filler	143	7	recess.	9	284.0	NA
33	8	21	F	Question	143	7	NA	NA	1201.0	1
34	8	21	F	swets	31	2	The	1	362.0	NA
34	8	21	F	swets	31	2	aunt	2	282.0	NA
34	8	21	F	swets	31	2	of	3	233.0	NA
34	8	21	F	swets	31	2	the	4	235.0	NA
34	8	21	F	swets	31	2	milkman	5	282.0	NA
34	8	21	F	swets	31	2	who	6	284.0	NA
34	8	21	F	swets	31	2	had	7	234.0	NA
34	8	21	F	swets	31	2	to	8	265.0	NA
34	8	21	F	swets	31	2	support	9	268.0	NA
34	8	21	F	swets	31	2	himself	10	251.0	NA
34	8	21	F	swets	31	2	with	11	283.0	NA
34	8	21	F	swets	31	2	a	12	249.0	NA
34	8	21	F	swets	31	2	low	13	317.0	NA
34	8	21	F	swets	31	2	income	14	250.0	NA
34	8	21	F	swets	31	2	liked	15	334.0	NA
34	8	21	F	swets	31	2	to	16	383.0	NA
34	8	21	F	swets	31	2	fish.	17	366.0	NA
34	8	21	F	Question	31	2	NA	NA	1901.0	1
35	8	21	F	Filler	108	5	The	1	678.0	NA
35	8	21	F	Filler	108	5	museum	2	300.0	NA
35	8	21	F	Filler	108	5	wing	3	300.0	NA
35	8	21	F	Filler	108	5	which	4	284.0	NA
35	8	21	F	Filler	108	5	housed	5	283.0	NA
35	8	21	F	Filler	108	5	all	6	367.0	NA
35	8	21	F	Filler	108	5	the	7	351.0	NA
35	8	21	F	Filler	108	5	Picasso	8	316.0	NA
35	8	21	F	Filler	108	5	paintings	9	301.0	NA
35	8	21	F	Filler	108	5	was	10	334.0	NA
35	8	21	F	Filler	108	5	very	11	266.0	NA
35	8	21	F	Filler	108	5	crowded.	12	267.0	NA
35	8	21	F	Question	108	5	NA	NA	2050.0	1
36	8	21	F	Filler	64	4	Because	1	362.0	NA
36	8	21	F	Filler	64	4	a	2	317.0	NA
36	8	21	F	Filler	64	4	fire	3	267.0	NA
36	8	21	F	Filler	64	4	alarm	4	283.0	NA
36	8	21	F	Filler	64	4	interrupted	5	300.0	NA
36	8	21	F	Filler	64	4	the	6	267.0	NA
36	8	21	F	Filler	64	4	exam	7	332.0	NA
36	8	21	F	Filler	64	4	the	8	250.0	NA
36	8	21	F	Filler	64	4	scores	9	318.0	NA
36	8	21	F	Filler	64	4	were	10	299.0	NA
36	8	21	F	Filler	64	4	disqualified.	11	301.0	NA
36	8	21	F	Question	64	4	NA	NA	4267.0	1
37	8	21	F	Filler	54	4	The	1	428.0	NA
37	8	21	F	Filler	54	4	video	2	250.0	NA
37	8	21	F	Filler	54	4	screen	3	284.0	NA
37	8	21	F	Filler	54	4	of	4	333.0	NA
37	8	21	F	Filler	54	4	the	5	233.0	NA
37	8	21	F	Filler	54	4	monitor	6	283.0	NA
37	8	21	F	Filler	54	4	made	7	251.0	NA
37	8	21	F	Filler	54	4	strange	8	299.0	NA
37	8	21	F	Filler	54	4	noises	9	318.0	NA
37	8	21	F	Filler	54	4	and	10	298.0	NA
37	8	21	F	Filler	54	4	started	11	236.0	NA
37	8	21	F	Filler	54	4	emitting	12	267.0	NA
37	8	21	F	Filler	54	4	strange	13	299.0	NA
37	8	21	F	Filler	54	4	flashes.	14	217.0	NA
37	8	21	F	Question	54	4	NA	NA	1833.0	1
38	8	21	F	swets	9	1	The	1	545.0	NA
38	8	21	F	swets	9	1	sister	2	301.0	NA
38	8	21	F	swets	9	1	of	3	351.0	NA
38	8	21	F	swets	9	1	the	4	349.0	NA
38	8	21	F	swets	9	1	schoolgirl	5	334.0	NA
38	8	21	F	swets	9	1	who	6	366.0	NA
38	8	21	F	swets	9	1	burned	7	267.0	NA
38	8	21	F	swets	9	1	herself	8	416.0	NA
38	8	21	F	swets	9	1	the	9	301.0	NA
38	8	21	F	swets	9	1	other	10	617.0	NA
38	8	21	F	swets	9	1	day	11	333.0	NA
38	8	21	F	swets	9	1	was	12	466.0	NA
38	8	21	F	swets	9	1	usually	13	369.0	NA
38	8	21	F	swets	9	1	very	14	383.0	NA
38	8	21	F	swets	9	1	careful.	15	532.0	NA
38	8	21	F	Question	9	1	NA	NA	2801.0	1
39	8	21	F	Filler	41	4	While	1	478.0	NA
39	8	21	F	Filler	41	4	the	2	301.0	NA
39	8	21	F	Filler	41	4	babysitter	3	432.0	NA
39	8	21	F	Filler	41	4	watched	4	417.0	NA
39	8	21	F	Filler	41	4	soap	5	317.0	NA
39	8	21	F	Filler	41	4	operas	6	716.0	NA
39	8	21	F	Filler	41	4	the	7	351.0	NA
39	8	21	F	Filler	41	4	child	8	318.0	NA
39	8	21	F	Filler	41	4	poured	9	432.0	NA
39	8	21	F	Filler	41	4	honey	10	383.0	NA
39	8	21	F	Filler	41	4	all	11	352.0	NA
39	8	21	F	Filler	41	4	over	12	333.0	NA
39	8	21	F	Filler	41	4	the	13	316.0	NA
39	8	21	F	Filler	41	4	floor.	14	482.0	NA
39	8	21	F	Question	41	4	NA	NA	1035.0	1
40	8	21	F	swets	10	2	The	1	378.0	NA
40	8	21	F	swets	10	2	uncle	2	266.0	NA
40	8	21	F	swets	10	2	of	3	282.0	NA
40	8	21	F	swets	10	2	the	4	269.0	NA
40	8	21	F	swets	10	2	nun	5	233.0	NA
40	8	21	F	swets	10	2	who	6	384.0	NA
40	8	21	F	swets	10	2	lost	7	250.0	NA
40	8	21	F	swets	10	2	herself	8	248.0	NA
40	8	21	F	swets	10	2	in	9	317.0	NA
40	8	21	F	swets	10	2	thought	10	268.0	NA
40	8	21	F	swets	10	2	was	11	301.0	NA
40	8	21	F	swets	10	2	disturbed	12	732.0	NA
40	8	21	F	swets	10	2	by	13	402.0	NA
40	8	21	F	swets	10	2	the	14	331.0	NA
40	8	21	F	swets	10	2	noise.	15	317.0	NA
40	8	21	F	Question	10	2	NA	NA	2502.0	1
41	8	21	F	Filler	119	6	Everybody	1	561.0	NA
41	8	21	F	Filler	119	6	is	2	250.0	NA
41	8	21	F	Filler	119	6	wondering	3	399.0	NA
41	8	21	F	Filler	119	6	which	4	267.0	NA
41	8	21	F	Filler	119	6	software	5	268.0	NA
41	8	21	F	Filler	119	6	Gary	6	267.0	NA
41	8	21	F	Filler	119	6	installed	7	467.0	NA
41	8	21	F	Filler	119	6	without	8	400.0	NA
41	8	21	F	Filler	119	6	buying	9	366.0	NA
41	8	21	F	Filler	119	6	last	10	334.0	NA
41	8	21	F	Filler	119	6	June.	11	433.0	NA
41	8	21	F	Question	119	6	NA	NA	1934.0	1
42	8	21	F	swets	11	3	The	1	362.0	NA
42	8	21	F	swets	11	3	mother	2	332.0	NA
42	8	21	F	swets	11	3	of	3	251.0	NA
42	8	21	F	swets	11	3	the	4	232.0	NA
42	8	21	F	swets	11	3	surgeon	5	236.0	NA
42	8	21	F	swets	11	3	who	6	266.0	NA
42	8	21	F	swets	11	3	made	7	217.0	NA
42	8	21	F	swets	11	3	a	8	234.0	NA
42	8	21	F	swets	11	3	fool	9	231.0	NA
42	8	21	F	swets	11	3	of	10	252.0	NA
42	8	21	F	swets	11	3	herself	11	267.0	NA
42	8	21	F	swets	11	3	at	12	317.0	NA
42	8	21	F	swets	11	3	the	13	315.0	NA
42	8	21	F	swets	11	3	party	14	468.0	NA
42	8	21	F	swets	11	3	was	15	299.0	NA
42	8	21	F	swets	11	3	greatly	16	385.0	NA
42	8	21	F	swets	11	3	embarrassed.	17	298.0	NA
42	8	21	F	Question	11	3	NA	NA	2301.0	0
43	8	21	F	Filler	46	4	The	1	278.0	NA
43	8	21	F	Filler	46	4	preacher	2	216.0	NA
43	8	21	F	Filler	46	4	of	3	215.0	NA
43	8	21	F	Filler	46	4	the	4	186.0	NA
43	8	21	F	Filler	46	4	congregation	5	216.0	NA
43	8	21	F	Filler	46	4	had	6	416.0	NA
43	8	21	F	Filler	46	4	given	7	284.0	NA
43	8	21	F	Filler	46	4	a	8	318.0	NA
43	8	21	F	Filler	46	4	sermon	9	383.0	NA
43	8	21	F	Filler	46	4	at	10	400.0	NA
43	8	21	F	Filler	46	4	a	11	399.0	NA
43	8	21	F	Filler	46	4	local	12	334.0	NA
43	8	21	F	Filler	46	4	school.	13	416.0	NA
43	8	21	F	Question	46	4	NA	NA	1634.0	1
44	8	21	F	Filler	115	6	As	1	479.0	NA
44	8	21	F	Filler	115	6	Elaine	2	349.0	NA
44	8	21	F	Filler	115	6	and	3	933.0	NA
44	8	21	F	Filler	115	6	Robert	4	500.0	NA
44	8	21	F	Filler	115	6	fought	5	535.0	NA
44	8	21	F	Filler	115	6	the	6	317.0	NA
44	8	21	F	Filler	115	6	mosquitoes	7	432.0	NA
44	8	21	F	Filler	115	6	whined	8	418.0	NA
44	8	21	F	Filler	115	6	annoyingly.	9	599.0	NA
44	8	21	F	Question	115	6	NA	NA	2067.0	1
45	8	21	F	Filler	99	5	The	1	829.0	NA
45	8	21	F	Filler	99	5	daring	2	467.0	NA
45	8	21	F	Filler	99	5	photographer	3	482.0	NA
45	8	21	F	Filler	99	5	captured	4	434.0	NA
45	8	21	F	Filler	99	5	the	5	367.0	NA
45	8	21	F	Filler	99	5	image	6	366.0	NA
45	8	21	F	Filler	99	5	of	7	384.0	NA
45	8	21	F	Filler	99	5	the	8	366.0	NA
45	8	21	F	Filler	99	5	destruction	9	434.0	NA
45	8	21	F	Filler	99	5	as	10	368.0	NA
45	8	21	F	Filler	99	5	it	11	366.0	NA
45	8	21	F	Filler	99	5	devastated	12	450.0	NA
45	8	21	F	Filler	99	5	the	13	433.0	NA
45	8	21	F	Filler	99	5	village.	14	350.0	NA
45	8	21	F	Question	99	5	NA	NA	2000.0	1
46	8	21	F	Filler	44	4	The	1	461.0	NA
46	8	21	F	Filler	44	4	solicitor	2	234.0	NA
46	8	21	F	Filler	44	4	wearing	3	300.0	NA
46	8	21	F	Filler	44	4	the	4	234.0	NA
46	8	21	F	Filler	44	4	new	5	282.0	NA
46	8	21	F	Filler	44	4	tuxedo	6	268.0	NA
46	8	21	F	Filler	44	4	bothered	7	266.0	NA
46	8	21	F	Filler	44	4	a	8	251.0	NA
46	8	21	F	Filler	44	4	man	9	233.0	NA
46	8	21	F	Filler	44	4	from	10	284.0	NA
46	8	21	F	Filler	44	4	New	11	183.0	NA
46	8	21	F	Filler	44	4	York.	12	267.0	NA
46	8	21	F	Question	44	4	NA	NA	3601.0	1
47	8	21	F	Filler	83	5	The	1	444.0	NA
47	8	21	F	Filler	83	5	passengers	2	283.0	NA
47	8	21	F	Filler	83	5	screamed	3	284.0	NA
47	8	21	F	Filler	83	5	as	4	283.0	NA
47	8	21	F	Filler	83	5	the	5	233.0	NA
47	8	21	F	Filler	83	5	plane	6	284.0	NA
47	8	21	F	Filler	83	5	dipped	7	267.0	NA
47	8	21	F	Filler	83	5	and	8	284.0	NA
47	8	21	F	Filler	83	5	the	9	300.0	NA
47	8	21	F	Filler	83	5	pilots	10	266.0	NA
47	8	21	F	Filler	83	5	said	11	316.0	NA
47	8	21	F	Filler	83	5	their	12	303.0	NA
47	8	21	F	Filler	83	5	prayers	13	315.0	NA
47	8	21	F	Filler	83	5	quietly.	14	335.0	NA
47	8	21	F	Question	83	5	NA	NA	1066.0	1
48	8	21	F	swets	1	2	The	1	579.0	NA
48	8	21	F	swets	1	2	brother	2	333.0	NA
48	8	21	F	swets	1	2	of	3	250.0	NA
48	8	21	F	swets	1	2	the	4	302.0	NA
48	8	21	F	swets	1	2	actress	5	365.0	NA
48	8	21	F	swets	1	2	who	6	368.0	NA
48	8	21	F	swets	1	2	called	7	433.0	NA
48	8	21	F	swets	1	2	attention	8	383.0	NA
48	8	21	F	swets	1	2	to	9	351.0	NA
48	8	21	F	swets	1	2	herself	10	350.0	NA
48	8	21	F	swets	1	2	on	11	366.0	NA
48	8	21	F	swets	1	2	the	12	367.0	NA
48	8	21	F	swets	1	2	balcony	13	433.0	NA
48	8	21	F	swets	1	2	was	14	401.0	NA
48	8	21	F	swets	1	2	under	15	466.0	NA
48	8	21	F	swets	1	2	investigation.	16	785.0	NA
48	8	21	F	Question	1	2	NA	NA	2133.0	1
49	8	21	F	Filler	123	6	The	1	346.0	NA
49	8	21	F	Filler	123	6	student	2	266.0	NA
49	8	21	F	Filler	123	6	and	3	250.0	NA
49	8	21	F	Filler	123	6	professor	4	251.0	NA
49	8	21	F	Filler	123	6	went	5	265.0	NA
49	8	21	F	Filler	123	6	for	6	218.0	NA
49	8	21	F	Filler	123	6	a	7	265.0	NA
49	8	21	F	Filler	123	6	walk	8	201.0	NA
49	8	21	F	Filler	123	6	last	9	201.0	NA
49	8	21	F	Filler	123	6	Tuesday.	10	299.0	NA
49	8	21	F	Question	123	6	NA	NA	1501.0	1
50	8	21	F	Filler	70	4	The	1	328.0	NA
50	8	21	F	Filler	70	4	warden	2	266.0	NA
50	8	21	F	Filler	70	4	was	3	217.0	NA
50	8	21	F	Filler	70	4	dissatisfied	4	234.0	NA
50	8	21	F	Filler	70	4	with	5	383.0	NA
50	8	21	F	Filler	70	4	the	6	282.0	NA
50	8	21	F	Filler	70	4	decision	7	252.0	NA
50	8	21	F	Filler	70	4	of	8	283.0	NA
50	8	21	F	Filler	70	4	the	9	234.0	NA
50	8	21	F	Filler	70	4	parole	10	283.0	NA
50	8	21	F	Filler	70	4	committee	11	267.0	NA
50	8	21	F	Filler	70	4	to	12	284.0	NA
50	8	21	F	Filler	70	4	pardon	13	282.0	NA
50	8	21	F	Filler	70	4	the	14	317.0	NA
50	8	21	F	Filler	70	4	prisoner.	15	334.0	NA
50	8	21	F	Question	70	4	NA	NA	3567.0	1
51	8	21	F	Filler	98	5	The	1	313.0	NA
51	8	21	F	Filler	98	5	husband	2	299.0	NA
51	8	21	F	Filler	98	5	of	3	282.0	NA
51	8	21	F	Filler	98	5	the	4	285.0	NA
51	8	21	F	Filler	98	5	bestselling	5	300.0	NA
51	8	21	F	Filler	98	5	novelist	6	302.0	NA
51	8	21	F	Filler	98	5	was	7	266.0	NA
51	8	21	F	Filler	98	5	into	8	283.0	NA
51	8	21	F	Filler	98	5	collecting	9	249.0	NA
51	8	21	F	Filler	98	5	antiques.	10	302.0	NA
51	8	21	F	Question	98	5	NA	NA	1449.0	1
52	8	21	F	swets	25	2	The	1	462.0	NA
52	8	21	F	swets	25	2	grandfather	2	234.0	NA
52	8	21	F	swets	25	2	of	3	266.0	NA
52	8	21	F	swets	25	2	the	4	266.0	NA
52	8	21	F	swets	25	2	stewardess	5	250.0	NA
52	8	21	F	swets	25	2	who	6	235.0	NA
52	8	21	F	swets	25	2	treated	7	316.0	NA
52	8	21	F	swets	25	2	herself	8	233.0	NA
52	8	21	F	swets	25	2	to	9	284.0	NA
52	8	21	F	swets	25	2	an	10	267.0	NA
52	8	21	F	swets	25	2	ice-cream	11	267.0	NA
52	8	21	F	swets	25	2	cone	12	265.0	NA
52	8	21	F	swets	25	2	was	13	368.0	NA
52	8	21	F	swets	25	2	waiting	14	249.0	NA
52	8	21	F	swets	25	2	at	15	285.0	NA
52	8	21	F	swets	25	2	home.	16	366.0	NA
52	8	21	F	Question	25	2	NA	NA	2167.0	1
53	8	21	F	Filler	47	4	The	1	363.0	NA
53	8	21	F	Filler	47	4	boys	2	267.0	NA
53	8	21	F	Filler	47	4	all	3	250.0	NA
53	8	21	F	Filler	47	4	admired	4	234.0	NA
53	8	21	F	Filler	47	4	the	5	248.0	NA
53	8	21	F	Filler	47	4	singer	6	251.0	NA
53	8	21	F	Filler	47	4	of	7	267.0	NA
53	8	21	F	Filler	47	4	the	8	250.0	NA
53	8	21	F	Filler	47	4	song	9	216.0	NA
53	8	21	F	Filler	47	4	with	10	251.0	NA
53	8	21	F	Filler	47	4	the	11	200.0	NA
53	8	21	F	Filler	47	4	long	12	266.0	NA
53	8	21	F	Filler	47	4	eyelashes.	13	201.0	NA
53	8	21	F	Question	47	4	NA	NA	1433.0	1
54	8	21	F	swets	27	1	The	1	395.0	NA
54	8	21	F	swets	27	1	brother	2	283.0	NA
54	8	21	F	swets	27	1	of	3	301.0	NA
54	8	21	F	swets	27	1	the	4	266.0	NA
54	8	21	F	swets	27	1	butcher	5	266.0	NA
54	8	21	F	swets	27	1	who	6	385.0	NA
54	8	21	F	swets	27	1	invited	7	384.0	NA
54	8	21	F	swets	27	1	himself	8	348.0	NA
54	8	21	F	swets	27	1	to	9	319.0	NA
54	8	21	F	swets	27	1	the	10	349.0	NA
54	8	21	F	swets	27	1	party	11	350.0	NA
54	8	21	F	swets	27	1	enjoyed	12	334.0	NA
54	8	21	F	swets	27	1	it	13	316.0	NA
54	8	21	F	swets	27	1	quite	14	499.0	NA
54	8	21	F	swets	27	1	a	15	319.0	NA
54	8	21	F	swets	27	1	bit.	16	333.0	NA
54	8	21	F	Question	27	1	NA	NA	7034.0	0
55	8	21	F	Filler	82	5	The	1	378.0	NA
55	8	21	F	Filler	82	5	patient's	2	267.0	NA
55	8	21	F	Filler	82	5	seizures	3	299.0	NA
55	8	21	F	Filler	82	5	appeared	4	884.0	NA
55	8	21	F	Filler	82	5	to	5	300.0	NA
55	8	21	F	Filler	82	5	have	6	285.0	NA
55	8	21	F	Filler	82	5	been	7	267.0	NA
55	8	21	F	Filler	82	5	eliminated	8	267.0	NA
55	8	21	F	Filler	82	5	by	9	331.0	NA
55	8	21	F	Filler	82	5	the	10	218.0	NA
55	8	21	F	Filler	82	5	surgery.	11	265.0	NA
55	8	21	F	Question	82	5	NA	NA	1467.0	1
56	8	21	F	Filler	81	5	The	1	345.0	NA
56	8	21	F	Filler	81	5	stubborn	2	366.0	NA
56	8	21	F	Filler	81	5	old	3	333.0	NA
56	8	21	F	Filler	81	5	man	4	267.0	NA
56	8	21	F	Filler	81	5	criticized	5	301.0	NA
56	8	21	F	Filler	81	5	everything	6	333.0	NA
56	8	21	F	Filler	81	5	that	7	300.0	NA
56	8	21	F	Filler	81	5	the	8	333.0	NA
56	8	21	F	Filler	81	5	young	9	301.0	NA
56	8	21	F	Filler	81	5	student	10	233.0	NA
56	8	21	F	Filler	81	5	did.	11	333.0	NA
56	8	21	F	Question	81	5	NA	NA	3867.0	1
57	8	21	F	Filler	38	4	Despite	1	394.0	NA
57	8	21	F	Filler	38	4	the	2	234.0	NA
57	8	21	F	Filler	38	4	lack	3	250.0	NA
57	8	21	F	Filler	38	4	of	4	149.0	NA
57	8	21	F	Filler	38	4	publicity	5	202.0	NA
57	8	21	F	Filler	38	4	many	6	200.0	NA
57	8	21	F	Filler	38	4	people	7	248.0	NA
57	8	21	F	Filler	38	4	attended	8	168.0	NA
57	8	21	F	Filler	38	4	the	9	283.0	NA
57	8	21	F	Filler	38	4	lecture.	10	267.0	NA
57	8	21	F	Question	38	4	NA	NA	1501.0	1
58	8	21	F	Filler	95	5	The	1	378.0	NA
58	8	21	F	Filler	95	5	receptionist	2	268.0	NA
58	8	21	F	Filler	95	5	of	3	365.0	NA
58	8	21	F	Filler	95	5	the	4	151.0	NA
58	8	21	F	Filler	95	5	company	5	733.0	NA
58	8	21	F	Filler	95	5	went	6	384.0	NA
58	8	21	F	Filler	95	5	home	7	267.0	NA
58	8	21	F	Filler	95	5	sick	8	316.0	NA
58	8	21	F	Filler	95	5	before	9	335.0	NA
58	8	21	F	Filler	95	5	moving	10	266.0	NA
58	8	21	F	Filler	95	5	across	11	316.0	NA
58	8	21	F	Filler	95	5	town.	12	267.0	NA
58	8	21	F	Question	95	5	NA	NA	1900.0	1
59	8	21	F	Filler	89	5	Jim	1	595.0	NA
59	8	21	F	Filler	89	5	watered	2	318.0	NA
59	8	21	F	Filler	89	5	the	3	283.0	NA
59	8	21	F	Filler	89	5	tropical	4	299.0	NA
59	8	21	F	Filler	89	5	plants	5	333.0	NA
59	8	21	F	Filler	89	5	of	6	217.0	NA
59	8	21	F	Filler	89	5	his	7	234.0	NA
59	8	21	F	Filler	89	5	neighbor	8	300.0	NA
59	8	21	F	Filler	89	5	because	9	233.0	NA
59	8	21	F	Filler	89	5	she	10	284.0	NA
59	8	21	F	Filler	89	5	had	11	283.0	NA
59	8	21	F	Filler	89	5	gone	12	251.0	NA
59	8	21	F	Filler	89	5	out	13	317.0	NA
59	8	21	F	Filler	89	5	of	14	316.0	NA
59	8	21	F	Filler	89	5	town	15	283.0	NA
59	8	21	F	Filler	89	5	for	16	334.0	NA
59	8	21	F	Filler	89	5	a	17	284.0	NA
59	8	21	F	Filler	89	5	few	18	299.0	NA
59	8	21	F	Filler	89	5	days.	19	333.0	NA
59	8	21	F	Question	89	5	NA	NA	967.0	1
60	8	21	F	Filler	90	5	The	1	1245.0	NA
60	8	21	F	Filler	90	5	artist	2	366.0	NA
60	8	21	F	Filler	90	5	was	3	368.0	NA
60	8	21	F	Filler	90	5	not	4	416.0	NA
60	8	21	F	Filler	90	5	satisfied	5	333.0	NA
60	8	21	F	Filler	90	5	with	6	433.0	NA
60	8	21	F	Filler	90	5	his	7	301.0	NA
60	8	21	F	Filler	90	5	painting	8	350.0	NA
60	8	21	F	Filler	90	5	because	9	300.0	NA
60	8	21	F	Filler	90	5	the	10	234.0	NA
60	8	21	F	Filler	90	5	shading	11	366.0	NA
60	8	21	F	Filler	90	5	was	12	368.0	NA
60	8	21	F	Filler	90	5	off.	13	350.0	NA
60	8	21	F	Question	90	5	NA	NA	2467.0	1
61	8	21	F	swets	33	1	The	1	861.0	NA
61	8	21	F	swets	33	1	butler	2	266.0	NA
61	8	21	F	swets	33	1	of	3	334.0	NA
61	8	21	F	swets	33	1	the	4	235.0	NA
61	8	21	F	swets	33	1	actor	5	315.0	NA
61	8	21	F	swets	33	1	who	6	334.0	NA
61	8	21	F	swets	33	1	did	7	283.0	NA
61	8	21	F	swets	33	1	not	8	234.0	NA
61	8	21	F	swets	33	1	like	9	283.0	NA
61	8	21	F	swets	33	1	himself	10	267.0	NA
61	8	21	F	swets	33	1	very	11	433.0	NA
61	8	21	F	swets	33	1	much	12	434.0	NA
61	8	21	F	swets	33	1	caught	13	400.0	NA
61	8	21	F	swets	33	1	the	14	383.0	NA
61	8	21	F	swets	33	1	armed	15	333.0	NA
61	8	21	F	swets	33	1	robber.	16	336.0	NA
61	8	21	F	Question	33	1	NA	NA	1499.0	1
62	8	21	F	Filler	87	5	The	1	545.0	NA
62	8	21	F	Filler	87	5	car	2	234.0	NA
62	8	21	F	Filler	87	5	chased	3	216.0	NA
62	8	21	F	Filler	87	5	the	4	200.0	NA
62	8	21	F	Filler	87	5	robber	5	201.0	NA
62	8	21	F	Filler	87	5	of	6	217.0	NA
62	8	21	F	Filler	87	5	the	7	366.0	NA
62	8	21	F	Filler	87	5	bank	8	335.0	NA
62	8	21	F	Filler	87	5	into	9	416.0	NA
62	8	21	F	Filler	87	5	a	10	267.0	NA
62	8	21	F	Filler	87	5	narrow	11	382.0	NA
62	8	21	F	Filler	87	5	alley.	12	350.0	NA
62	8	21	F	Question	87	5	NA	NA	1332.0	1
63	8	21	F	Filler	85	5	The	1	245.0	NA
63	8	21	F	Filler	85	5	college	2	283.0	NA
63	8	21	F	Filler	85	5	students	3	233.0	NA
63	8	21	F	Filler	85	5	were	4	267.0	NA
63	8	21	F	Filler	85	5	upset	5	201.0	NA
63	8	21	F	Filler	85	5	that	6	300.0	NA
63	8	21	F	Filler	85	5	they	7	200.0	NA
63	8	21	F	Filler	85	5	had	8	200.0	NA
63	8	21	F	Filler	85	5	an	9	184.0	NA
63	8	21	F	Filler	85	5	exam	10	231.0	NA
63	8	21	F	Filler	85	5	the	11	268.0	NA
63	8	21	F	Filler	85	5	next	12	201.0	NA
63	8	21	F	Filler	85	5	day.	13	250.0	NA
63	8	21	F	Question	85	5	NA	NA	1500.0	1
64	8	21	F	swets	36	1	The	1	562.0	NA
64	8	21	F	swets	36	1	daughter	2	300.0	NA
64	8	21	F	swets	36	1	of	3	298.0	NA
64	8	21	F	swets	36	1	the	4	301.0	NA
64	8	21	F	swets	36	1	saleswoman	5	302.0	NA
64	8	21	F	swets	36	1	who	6	398.0	NA
64	8	21	F	swets	36	1	talked	7	218.0	NA
64	8	21	F	swets	36	1	to	8	282.0	NA
64	8	21	F	swets	36	1	herself	9	268.0	NA
64	8	21	F	swets	36	1	all	10	318.0	NA
64	8	21	F	swets	36	1	the	11	282.0	NA
64	8	21	F	swets	36	1	time	12	283.0	NA
64	8	21	F	swets	36	1	walked	13	301.0	NA
64	8	21	F	swets	36	1	into	14	300.0	NA
64	8	21	F	swets	36	1	the	15	366.0	NA
64	8	21	F	swets	36	1	room.	16	300.0	NA
64	8	21	F	Question	36	1	NA	NA	1784.0	1
65	8	21	F	Filler	51	4	The	1	412.0	NA
65	8	21	F	Filler	51	4	students	2	267.0	NA
65	8	21	F	Filler	51	4	were	3	266.0	NA
65	8	21	F	Filler	51	4	in	4	219.0	NA
65	8	21	F	Filler	51	4	a	5	215.0	NA
65	8	21	F	Filler	51	4	frenzy	6	201.0	NA
65	8	21	F	Filler	51	4	because	7	234.0	NA
65	8	21	F	Filler	51	4	they	8	266.0	NA
65	8	21	F	Filler	51	4	wanted	9	282.0	NA
65	8	21	F	Filler	51	4	tickets	10	267.0	NA
65	8	21	F	Filler	51	4	for	11	217.0	NA
65	8	21	F	Filler	51	4	the	12	216.0	NA
65	8	21	F	Filler	51	4	game	13	218.0	NA
65	8	21	F	Filler	51	4	tonight.	14	634.0	NA
65	8	21	F	Question	51	4	NA	NA	1233.0	1
66	8	21	F	Filler	68	4	The	1	663.0	NA
66	8	21	F	Filler	68	4	scientist	2	333.0	NA
66	8	21	F	Filler	68	4	published	3	299.0	NA
66	8	21	F	Filler	68	4	a	4	300.0	NA
66	8	21	F	Filler	68	4	paper	5	300.0	NA
66	8	21	F	Filler	68	4	in	6	566.0	NA
66	8	21	F	Filler	68	4	the	7	386.0	NA
66	8	21	F	Filler	68	4	journal	8	365.0	NA
66	8	21	F	Filler	68	4	of	9	318.0	NA
66	8	21	F	Filler	68	4	the	10	317.0	NA
66	8	21	F	Filler	68	4	foreign	11	251.0	NA
66	8	21	F	Filler	68	4	organization.	12	365.0	NA
66	8	21	F	Question	68	4	NA	NA	2735.0	0
67	8	21	F	Filler	117	6	While	1	495.0	NA
67	8	21	F	Filler	117	6	Mike	2	301.0	NA
67	8	21	F	Filler	117	6	coughed	3	298.0	NA
67	8	21	F	Filler	117	6	Janet	4	268.0	NA
67	8	21	F	Filler	117	6	went	5	251.0	NA
67	8	21	F	Filler	117	6	out	6	216.0	NA
67	8	21	F	Filler	117	6	to	7	250.0	NA
67	8	21	F	Filler	117	6	get	8	233.0	NA
67	8	21	F	Filler	117	6	some	9	184.0	NA
67	8	21	F	Filler	117	6	cough	10	299.0	NA
67	8	21	F	Filler	117	6	medicine.	11	135.0	NA
67	8	21	F	Question	117	6	NA	NA	765.0	1
68	8	21	F	Filler	132	7	While	1	429.0	NA
68	8	21	F	Filler	132	7	John	2	266.0	NA
68	8	21	F	Filler	132	7	and	3	283.0	NA
68	8	21	F	Filler	132	7	Mary	4	266.0	NA
68	8	21	F	Filler	132	7	kissed	5	302.0	NA
68	8	21	F	Filler	132	7	their	6	399.0	NA
68	8	21	F	Filler	132	7	daughter	7	267.0	NA
68	8	21	F	Filler	132	7	fell	8	318.0	NA
68	8	21	F	Filler	132	7	asleep.	9	1298.0	NA
68	8	21	F	Question	132	7	NA	NA	1301.0	1
69	8	21	F	Filler	49	4	The	1	445.0	NA
69	8	21	F	Filler	49	4	construction	2	333.0	NA
69	8	21	F	Filler	49	4	worker	3	868.0	NA
69	8	21	F	Filler	49	4	sued	4	399.0	NA
69	8	21	F	Filler	49	4	the	5	318.0	NA
69	8	21	F	Filler	49	4	son	6	332.0	NA
69	8	21	F	Filler	49	4	of	7	267.0	NA
69	8	21	F	Filler	49	4	that	8	299.0	NA
69	8	21	F	Filler	49	4	greedy	9	250.0	NA
69	8	21	F	Filler	49	4	banker.	10	300.0	NA
69	8	21	F	Question	49	4	NA	NA	3000.0	1
70	8	21	F	Filler	105	5	The	1	762.0	NA
70	8	21	F	Filler	105	5	actors	2	633.0	NA
70	8	21	F	Filler	105	5	rehearsed	3	267.0	NA
70	8	21	F	Filler	105	5	the	4	334.0	NA
70	8	21	F	Filler	105	5	play	5	202.0	NA
70	8	21	F	Filler	105	5	so	6	198.0	NA
70	8	21	F	Filler	105	5	much	7	199.0	NA
70	8	21	F	Filler	105	5	that	8	150.0	NA
70	8	21	F	Filler	105	5	they	9	167.0	NA
70	8	21	F	Filler	105	5	became	10	134.0	NA
70	8	21	F	Filler	105	5	bored	11	184.0	NA
70	8	21	F	Filler	105	5	with	12	148.0	NA
70	8	21	F	Filler	105	5	it.	13	219.0	NA
70	8	21	F	Question	105	5	NA	NA	1067.0	1
71	8	21	F	Filler	116	6	As	1	360.0	NA
71	8	21	F	Filler	116	6	the	2	185.0	NA
71	8	21	F	Filler	116	6	survivors	3	232.0	NA
71	8	21	F	Filler	116	6	were	4	268.0	NA
71	8	21	F	Filler	116	6	embracing	5	265.0	NA
71	8	21	F	Filler	116	6	the	6	319.0	NA
71	8	21	F	Filler	116	6	firefighter	7	232.0	NA
71	8	21	F	Filler	116	6	coughed	8	868.0	NA
71	8	21	F	Filler	116	6	violently.	9	533.0	NA
71	8	21	F	Question	116	6	NA	NA	1268.0	1
72	8	21	F	Filler	61	4	The	1	395.0	NA
72	8	21	F	Filler	61	4	lemon	2	302.0	NA
72	8	21	F	Filler	61	4	squirted	3	332.0	NA
72	8	21	F	Filler	61	4	into	4	351.0	NA
72	8	21	F	Filler	61	4	the	5	283.0	NA
72	8	21	F	Filler	61	4	debutante's	6	267.0	NA
72	8	21	F	Filler	61	4	eye	7	767.0	NA
72	8	21	F	Filler	61	4	as	8	333.0	NA
72	8	21	F	Filler	61	4	she	9	283.0	NA
72	8	21	F	Filler	61	4	tried	10	283.0	NA
72	8	21	F	Filler	61	4	to	11	284.0	NA
72	8	21	F	Filler	61	4	impress	12	283.0	NA
72	8	21	F	Filler	61	4	her	13	267.0	NA
72	8	21	F	Filler	61	4	mother's	14	334.0	NA
72	8	21	F	Filler	61	4	society	15	333.0	NA
72	8	21	F	Filler	61	4	friends.	16	367.0	NA
72	8	21	F	Question	61	4	NA	NA	1634.0	1
73	8	21	F	Filler	134	7	As	1	430.0	NA
73	8	21	F	Filler	134	7	Shawnie	2	267.0	NA
73	8	21	F	Filler	134	7	and	3	749.0	NA
73	8	21	F	Filler	134	7	Nick	4	367.0	NA
73	8	21	F	Filler	134	7	were	5	250.0	NA
73	8	21	F	Filler	134	7	embracing	6	433.0	NA
73	8	21	F	Filler	134	7	the	7	334.0	NA
73	8	21	F	Filler	134	7	doctor	8	317.0	NA
73	8	21	F	Filler	134	7	the	9	400.0	NA
73	8	21	F	Filler	134	7	visitor	10	783.0	NA
73	8	21	F	Filler	134	7	entered	11	1452.0	NA
73	8	21	F	Filler	134	7	the	12	400.0	NA
73	8	21	F	Filler	134	7	room.	13	400.0	NA
73	8	21	F	Question	134	7	NA	NA	6834.0	1
74	8	21	F	Filler	140	7	The	1	478.0	NA
74	8	21	F	Filler	140	7	investigators	2	300.0	NA
74	8	21	F	Filler	140	7	asked	3	317.0	NA
74	8	21	F	Filler	140	7	which	4	333.0	NA
74	8	21	F	Filler	140	7	mansion	5	233.0	NA
74	8	21	F	Filler	140	7	the	6	683.0	NA
74	8	21	F	Filler	140	7	owner	7	335.0	NA
74	8	21	F	Filler	140	7	sold	8	332.0	NA
74	8	21	F	Filler	140	7	and	9	401.0	NA
74	8	21	F	Filler	140	7	didn't	10	234.0	NA
74	8	21	F	Filler	140	7	repair	11	266.0	NA
74	8	21	F	Filler	140	7	ten	12	267.0	NA
74	8	21	F	Filler	140	7	years	13	301.0	NA
74	8	21	F	Filler	140	7	ago.	14	383.0	NA
74	8	21	F	Question	140	7	NA	NA	1265.0	1
75	8	21	F	Filler	92	5	The	1	462.0	NA
75	8	21	F	Filler	92	5	personal	2	268.0	NA
75	8	21	F	Filler	92	5	trainer	3	283.0	NA
75	8	21	F	Filler	92	5	was	4	282.0	NA
75	8	21	F	Filler	92	5	popular	5	234.0	NA
75	8	21	F	Filler	92	5	among	6	333.0	NA
75	8	21	F	Filler	92	5	athletes	7	251.0	NA
75	8	21	F	Filler	92	5	after	8	334.0	NA
75	8	21	F	Filler	92	5	he	9	266.0	NA
75	8	21	F	Filler	92	5	helped	10	283.0	NA
75	8	21	F	Filler	92	5	the	11	283.0	NA
75	8	21	F	Filler	92	5	bodybuilder	12	266.0	NA
75	8	21	F	Filler	92	5	win	13	269.0	NA
75	8	21	F	Filler	92	5	the	14	267.0	NA
75	8	21	F	Filler	92	5	competition.	15	266.0	NA
75	8	21	F	Question	92	5	NA	NA	2050.0	1
76	8	21	F	Filler	126	6	The	1	445.0	NA
76	8	21	F	Filler	126	6	boxes	2	234.0	NA
76	8	21	F	Filler	126	6	and	3	201.0	NA
76	8	21	F	Filler	126	6	hangers	4	234.0	NA
76	8	21	F	Filler	126	6	had	5	199.0	NA
76	8	21	F	Filler	126	6	been	6	199.0	NA
76	8	21	F	Filler	126	6	stuffed	7	267.0	NA
76	8	21	F	Filler	126	6	in	8	366.0	NA
76	8	21	F	Filler	126	6	the	9	217.0	NA
76	8	21	F	Filler	126	6	closet.	10	467.0	NA
76	8	21	F	Question	126	6	NA	NA	1767.0	1
77	8	21	F	swets	26	3	The	1	495.0	NA
77	8	21	F	swets	26	3	grand-niece	2	999.0	NA
77	8	21	F	swets	26	3	of	3	351.0	NA
77	8	21	F	swets	26	3	the	4	284.0	NA
77	8	21	F	swets	26	3	admiral	5	333.0	NA
77	8	21	F	swets	26	3	who	6	333.0	NA
77	8	21	F	swets	26	3	wrote	7	268.0	NA
77	8	21	F	swets	26	3	herself	8	316.0	NA
77	8	21	F	swets	26	3	a	9	334.0	NA
77	8	21	F	swets	26	3	note	10	350.0	NA
77	8	21	F	swets	26	3	admired	11	333.0	NA
77	8	21	F	swets	26	3	sailors	12	351.0	NA
77	8	21	F	swets	26	3	very	13	315.0	NA
77	8	21	F	swets	26	3	much.	14	302.0	NA
77	8	21	F	Question	26	3	NA	NA	3149.0	1
78	8	21	F	Filler	120	6	Sarah	1	1061.0	NA
78	8	21	F	Filler	120	6	won't	2	368.0	NA
78	8	21	F	Filler	120	6	reveal	3	366.0	NA
78	8	21	F	Filler	120	6	which	4	400.0	NA
78	8	21	F	Filler	120	6	race	5	284.0	NA
78	8	21	F	Filler	120	6	she	6	283.0	NA
78	8	21	F	Filler	120	6	won	7	317.0	NA
78	8	21	F	Filler	120	6	without	8	267.0	NA
78	8	21	F	Filler	120	6	entering	9	301.0	NA
78	8	21	F	Filler	120	6	the	10	265.0	NA
78	8	21	F	Filler	120	6	competition	11	334.0	NA
78	8	21	F	Filler	120	6	for	12	400.0	NA
78	8	21	F	Filler	120	6	officially.	13	1166.0	NA
78	8	21	F	Question	120	6	NA	NA	1134.0	1
79	8	21	F	Filler	48	4	The	1	345.0	NA
79	8	21	F	Filler	48	4	police	2	266.0	NA
79	8	21	F	Filler	48	4	arrested	3	199.0	NA
79	8	21	F	Filler	48	4	the	4	218.0	NA
79	8	21	F	Filler	48	4	sister	5	334.0	NA
79	8	21	F	Filler	48	4	of	6	249.0	NA
79	8	21	F	Filler	48	4	the	7	235.0	NA
79	8	21	F	Filler	48	4	handyman	8	267.0	NA
79	8	21	F	Filler	48	4	after	9	299.0	NA
79	8	21	F	Filler	48	4	she	10	218.0	NA
79	8	21	F	Filler	48	4	recently	11	299.0	NA
79	8	21	F	Filler	48	4	gave	12	217.0	NA
79	8	21	F	Filler	48	4	birth	13	300.0	NA
79	8	21	F	Filler	48	4	to	14	199.0	NA
79	8	21	F	Filler	48	4	twins.	15	201.0	NA
79	8	21	F	Question	48	4	NA	NA	1100.0	1
80	8	21	F	swets	6	1	The	1	829.0	NA
80	8	21	F	swets	6	1	brother	2	316.0	NA
80	8	21	F	swets	6	1	of	3	251.0	NA
80	8	21	F	swets	6	1	the	4	217.0	NA
80	8	21	F	swets	6	1	mayor	5	250.0	NA
80	8	21	F	swets	6	1	who	6	267.0	NA
80	8	21	F	swets	6	1	complimented	7	266.0	NA
80	8	21	F	swets	6	1	himself	8	300.0	NA
80	8	21	F	swets	6	1	constantly	9	533.0	NA
80	8	21	F	swets	6	1	was	10	1401.0	NA
80	8	21	F	swets	6	1	bothered	11	534.0	NA
80	8	21	F	swets	6	1	by	12	484.0	NA
80	8	21	F	swets	6	1	the	13	400.0	NA
80	8	21	F	swets	6	1	reporter.	14	433.0	NA
80	8	21	F	Question	6	1	NA	NA	3101.0	1
81	8	21	F	Filler	77	5	Outside	1	62.0	NA
81	8	21	F	Filler	77	5	the	2	634.0	NA
81	8	21	F	Filler	77	5	courthouse	3	533.0	NA
81	8	21	F	Filler	77	5	the	4	451.0	NA
81	8	21	F	Filler	77	5	committee	5	300.0	NA
81	8	21	F	Filler	77	5	awarded	6	267.0	NA
81	8	21	F	Filler	77	5	a	7	249.0	NA
81	8	21	F	Filler	77	5	lifetime	8	200.0	NA
81	8	21	F	Filler	77	5	achievement	9	200.0	NA
81	8	21	F	Filler	77	5	prize	10	266.0	NA
81	8	21	F	Filler	77	5	to	11	201.0	NA
81	8	21	F	Filler	77	5	the	12	200.0	NA
81	8	21	F	Filler	77	5	creator	13	199.0	NA
81	8	21	F	Filler	77	5	of	14	317.0	NA
81	8	21	F	Filler	77	5	the	15	233.0	NA
81	8	21	F	Filler	77	5	sculpture.	16	267.0	NA
81	8	21	F	Question	77	5	NA	NA	1583.0	1
82	8	21	F	Filler	124	6	The	1	410.0	NA
82	8	21	F	Filler	124	6	mothers	2	218.0	NA
82	8	21	F	Filler	124	6	and	3	283.0	NA
82	8	21	F	Filler	124	6	teachers	4	199.0	NA
82	8	21	F	Filler	124	6	played	5	234.0	NA
82	8	21	F	Filler	124	6	tennis	6	200.0	NA
82	8	21	F	Filler	124	6	after	7	252.0	NA
82	8	21	F	Filler	124	6	the	8	248.0	NA
82	8	21	F	Filler	124	6	kids	9	202.0	NA
82	8	21	F	Filler	124	6	left.	10	233.0	NA
82	8	21	F	Question	124	6	NA	NA	2000.0	1
83	8	21	F	Filler	114	6	While	1	662.0	NA
83	8	21	F	Filler	114	6	the	2	268.0	NA
83	8	21	F	Filler	114	6	winners	3	266.0	NA
83	8	21	F	Filler	114	6	were	4	316.0	NA
83	8	21	F	Filler	114	6	kissing	5	268.0	NA
83	8	21	F	Filler	114	6	the	6	332.0	NA
83	8	21	F	Filler	114	6	crowd	7	267.0	NA
83	8	21	F	Filler	114	6	cheered	8	334.0	NA
83	8	21	F	Filler	114	6	wildly.	9	634.0	NA
83	8	21	F	Question	114	6	NA	NA	1067.0	1
84	8	21	F	Filler	73	5	My	1	611.0	NA
84	8	21	F	Filler	73	5	cousins	2	267.0	NA
84	8	21	F	Filler	73	5	admired	3	333.0	NA
84	8	21	F	Filler	73	5	the	4	284.0	NA
84	8	21	F	Filler	73	5	singer	5	267.0	NA
84	8	21	F	Filler	73	5	although	6	298.0	NA
84	8	21	F	Filler	73	5	she	7	318.0	NA
84	8	21	F	Filler	73	5	never	8	300.0	NA
84	8	21	F	Filler	73	5	became	9	201.0	NA
84	8	21	F	Filler	73	5	popular.	10	234.0	NA
84	8	21	F	Question	73	5	NA	NA	3099.0	1
85	8	21	F	swets	8	3	The	1	963.0	NA
85	8	21	F	swets	8	3	brother	2	632.0	NA
85	8	21	F	swets	8	3	of	3	684.0	NA
85	8	21	F	swets	8	3	the	4	268.0	NA
85	8	21	F	swets	8	3	seamstress	5	899.0	NA
85	8	21	F	swets	8	3	who	6	549.0	NA
85	8	21	F	swets	8	3	entertained	7	701.0	NA
85	8	21	F	swets	8	3	himself	8	401.0	NA
85	8	21	F	swets	8	3	most	9	1082.0	NA
85	8	21	F	swets	8	3	evenings	10	368.0	NA
85	8	21	F	swets	8	3	was	11	784.0	NA
85	8	21	F	swets	8	3	reading	12	2601.0	NA
85	8	21	F	swets	8	3	a	13	399.0	NA
85	8	21	F	swets	8	3	book.	14	368.0	NA
85	8	21	F	Question	8	3	NA	NA	6634.0	1
86	8	21	F	Filler	66	4	The	1	479.0	NA
86	8	21	F	Filler	66	4	rare	2	466.0	NA
86	8	21	F	Filler	66	4	and	3	400.0	NA
86	8	21	F	Filler	66	4	exotic	4	267.0	NA
86	8	21	F	Filler	66	4	monkey	5	233.0	NA
86	8	21	F	Filler	66	4	was	6	233.0	NA
86	8	21	F	Filler	66	4	the	7	151.0	NA
86	8	21	F	Filler	66	4	center	8	199.0	NA
86	8	21	F	Filler	66	4	of	9	168.0	NA
86	8	21	F	Filler	66	4	attention	10	266.0	NA
86	8	21	F	Filler	66	4	at	11	199.0	NA
86	8	21	F	Filler	66	4	the	12	235.0	NA
86	8	21	F	Filler	66	4	zoo.	13	201.0	NA
86	8	21	F	Question	66	4	NA	NA	949.0	1
87	8	21	F	Filler	141	7	The	1	426.0	NA
87	8	21	F	Filler	141	7	nurse	2	234.0	NA
87	8	21	F	Filler	141	7	and	3	200.0	NA
87	8	21	F	Filler	141	7	custodian	4	234.0	NA
87	8	21	F	Filler	141	7	chatted	5	300.0	NA
87	8	21	F	Filler	141	7	during	6	300.0	NA
87	8	21	F	Filler	141	7	their	7	467.0	NA
87	8	21	F	Filler	141	7	break.	8	334.0	NA
87	8	21	F	Question	141	7	NA	NA	2800.0	1
88	8	21	F	Filler	136	7	While	1	328.0	NA
88	8	21	F	Filler	136	7	Mark	2	268.0	NA
88	8	21	F	Filler	136	7	and	3	298.0	NA
88	8	21	F	Filler	136	7	Jenny	4	200.0	NA
88	8	21	F	Filler	136	7	were	5	251.0	NA
88	8	21	F	Filler	136	7	cuddling	6	266.0	NA
88	8	21	F	Filler	136	7	the	7	285.0	NA
88	8	21	F	Filler	136	7	older	8	267.0	NA
88	8	21	F	Filler	136	7	dogs	9	266.0	NA
88	8	21	F	Filler	136	7	the	10	298.0	NA
88	8	21	F	Filler	136	7	puppies	11	300.0	NA
88	8	21	F	Filler	136	7	nipped	12	585.0	NA
88	8	21	F	Filler	136	7	at	13	385.0	NA
88	8	21	F	Filler	136	7	their	14	333.0	NA
88	8	21	F	Filler	136	7	feet.	15	400.0	NA
88	8	21	F	Question	136	7	NA	NA	2166.0	1
89	8	21	F	Filler	131	7	While	1	328.0	NA
89	8	21	F	Filler	131	7	Jamie	2	234.0	NA
89	8	21	F	Filler	131	7	dried	3	233.0	NA
89	8	21	F	Filler	131	7	off	4	267.0	NA
89	8	21	F	Filler	131	7	the	5	266.0	NA
89	8	21	F	Filler	131	7	table	6	201.0	NA
89	8	21	F	Filler	131	7	his	7	199.0	NA
89	8	21	F	Filler	131	7	sunglasses	8	233.0	NA
89	8	21	F	Filler	131	7	disappeared.	9	234.0	NA
89	8	21	F	Question	131	7	NA	NA	1133.0	1
90	8	21	F	swets	32	3	The	1	329.0	NA
90	8	21	F	swets	32	3	nephew	2	267.0	NA
90	8	21	F	swets	32	3	of	3	298.0	NA
90	8	21	F	swets	32	3	the	4	201.0	NA
90	8	21	F	swets	32	3	duchess	5	267.0	NA
90	8	21	F	swets	32	3	who	6	366.0	NA
90	8	21	F	swets	32	3	looked	7	300.0	NA
90	8	21	F	swets	32	3	at	8	300.0	NA
90	8	21	F	swets	32	3	himself	9	267.0	NA
90	8	21	F	swets	32	3	in	10	301.0	NA
90	8	21	F	swets	32	3	the	11	267.0	NA
90	8	21	F	swets	32	3	mirror	12	299.0	NA
90	8	21	F	swets	32	3	wore	13	252.0	NA
90	8	21	F	swets	32	3	a	14	299.0	NA
90	8	21	F	swets	32	3	blue	15	234.0	NA
90	8	21	F	swets	32	3	shirt.	16	332.0	NA
90	8	21	F	Question	32	3	NA	NA	5019.0	0
91	8	21	F	Filler	71	4	The	1	677.0	NA
91	8	21	F	Filler	71	4	elderly	2	301.0	NA
91	8	21	F	Filler	71	4	woman	3	234.0	NA
91	8	21	F	Filler	71	4	locked	4	334.0	NA
91	8	21	F	Filler	71	4	and	5	300.0	NA
91	8	21	F	Filler	71	4	bolted	6	732.0	NA
91	8	21	F	Filler	71	4	her	7	318.0	NA
91	8	21	F	Filler	71	4	door	8	250.0	NA
91	8	21	F	Filler	71	4	every	9	265.0	NA
91	8	21	F	Filler	71	4	night	10	201.0	NA
91	8	21	F	Filler	71	4	after	11	334.0	NA
91	8	21	F	Filler	71	4	the	12	216.0	NA
91	8	21	F	Filler	71	4	robbers	13	268.0	NA
91	8	21	F	Filler	71	4	took	14	349.0	NA
91	8	21	F	Filler	71	4	her	15	301.0	NA
91	8	21	F	Filler	71	4	best	16	234.0	NA
91	8	21	F	Filler	71	4	pearls.	17	299.0	NA
91	8	21	F	Question	71	4	NA	NA	1368.0	1
92	8	21	F	Filler	100	5	There	1	429.0	NA
92	8	21	F	Filler	100	5	was	2	467.0	NA
92	8	21	F	Filler	100	5	a	3	233.0	NA
92	8	21	F	Filler	100	5	large	4	200.0	NA
92	8	21	F	Filler	100	5	sale	5	299.0	NA
92	8	21	F	Filler	100	5	on	6	235.0	NA
92	8	21	F	Filler	100	5	stationary	7	200.0	NA
92	8	21	F	Filler	100	5	and	8	234.0	NA
92	8	21	F	Filler	100	5	office	9	265.0	NA
92	8	21	F	Filler	100	5	supplies	10	267.0	NA
92	8	21	F	Filler	100	5	at	11	300.0	NA
92	8	21	F	Filler	100	5	the	12	250.0	NA
92	8	21	F	Filler	100	5	student	13	233.0	NA
92	8	21	F	Filler	100	5	bookstore.	14	234.0	NA
92	8	21	F	Question	100	5	NA	NA	1834.0	1
93	8	21	F	Filler	129	7	While	1	494.0	NA
93	8	21	F	Filler	129	7	Scott	2	267.0	NA
93	8	21	F	Filler	129	7	vacuumed	3	300.0	NA
93	8	21	F	Filler	129	7	the	4	434.0	NA
93	8	21	F	Filler	129	7	carpet	5	267.0	NA
93	8	21	F	Filler	129	7	the	6	334.0	NA
93	8	21	F	Filler	129	7	drapes	7	332.0	NA
93	8	21	F	Filler	129	7	flapped	8	400.0	NA
93	8	21	F	Filler	129	7	in	9	451.0	NA
93	8	21	F	Filler	129	7	the	10	250.0	NA
93	8	21	F	Filler	129	7	breeze.	11	332.0	NA
93	8	21	F	Question	129	7	NA	NA	1200.0	1
94	8	21	F	swets	5	3	The	1	362.0	NA
94	8	21	F	swets	5	3	aunt	2	298.0	NA
94	8	21	F	swets	5	3	of	3	335.0	NA
94	8	21	F	swets	5	3	the	4	184.0	NA
94	8	21	F	swets	5	3	bishop	5	399.0	NA
94	8	21	F	swets	5	3	who	6	216.0	NA
94	8	21	F	swets	5	3	injured	7	367.0	NA
94	8	21	F	swets	5	3	herself	8	268.0	NA
94	8	21	F	swets	5	3	last	9	300.0	NA
94	8	21	F	swets	5	3	summer	10	365.0	NA
94	8	21	F	swets	5	3	was	11	2035.0	NA
94	8	21	F	swets	5	3	concerned	12	300.0	NA
94	8	21	F	swets	5	3	about	13	332.0	NA
94	8	21	F	swets	5	3	the	14	268.0	NA
94	8	21	F	swets	5	3	infection.	15	266.0	NA
94	8	21	F	Question	5	3	NA	NA	6651.0	0
95	8	21	F	Filler	39	4	The	1	3161.0	NA
95	8	21	F	Filler	39	4	overweight	2	1334.0	NA
95	8	21	F	Filler	39	4	aunt	3	1568.0	NA
95	8	21	F	Filler	39	4	decided	4	534.0	NA
95	8	21	F	Filler	39	4	to	5	283.0	NA
95	8	21	F	Filler	39	4	make	6	267.0	NA
95	8	21	F	Filler	39	4	cookies	7	232.0	NA
95	8	21	F	Filler	39	4	and	8	268.0	NA
95	8	21	F	Filler	39	4	cupcakes	9	199.0	NA
95	8	21	F	Filler	39	4	for	10	236.0	NA
95	8	21	F	Filler	39	4	the	11	232.0	NA
95	8	21	F	Filler	39	4	dinner	12	234.0	NA
95	8	21	F	Filler	39	4	party.	13	266.0	NA
95	8	21	F	Question	39	4	NA	NA	3033.0	1
96	8	21	F	Filler	102	5	The	1	512.0	NA
96	8	21	F	Filler	102	5	old	2	198.0	NA
96	8	21	F	Filler	102	5	man	3	233.0	NA
96	8	21	F	Filler	102	5	appeared	4	202.0	NA
96	8	21	F	Filler	102	5	to	5	216.0	NA
96	8	21	F	Filler	102	5	be	6	167.0	NA
96	8	21	F	Filler	102	5	upset	7	199.0	NA
96	8	21	F	Filler	102	5	by	8	168.0	NA
96	8	21	F	Filler	102	5	the	9	167.0	NA
96	8	21	F	Filler	102	5	teenager's	10	232.0	NA
96	8	21	F	Filler	102	5	ignorant	11	201.0	NA
96	8	21	F	Filler	102	5	remark.	12	200.0	NA
96	8	21	F	Question	102	5	NA	NA	1799.0	1
97	8	21	F	Filler	125	6	The	1	562.0	NA
97	8	21	F	Filler	125	6	bosses	2	266.0	NA
97	8	21	F	Filler	125	6	and	3	234.0	NA
97	8	21	F	Filler	125	6	secretaries	4	302.0	NA
97	8	21	F	Filler	125	6	took	5	266.0	NA
97	8	21	F	Filler	125	6	a	6	233.0	NA
97	8	21	F	Filler	125	6	long	7	266.0	NA
97	8	21	F	Filler	125	6	lunch	8	266.0	NA
97	8	21	F	Filler	125	6	together	9	301.0	NA
97	8	21	F	Filler	125	6	every	10	267.0	NA
97	8	21	F	Filler	125	6	Friday.	11	299.0	NA
97	8	21	F	Question	125	6	NA	NA	4152.0	1
98	8	21	F	Filler	121	6	The	1	577.0	NA
98	8	21	F	Filler	121	6	ecologist	2	234.0	NA
98	8	21	F	Filler	121	6	wondered	3	234.0	NA
98	8	21	F	Filler	121	6	which	4	268.0	NA
98	8	21	F	Filler	121	6	plants	5	265.0	NA
98	8	21	F	Filler	121	6	the	6	219.0	NA
98	8	21	F	Filler	121	6	scientist	7	233.0	NA
98	8	21	F	Filler	121	6	grew	8	266.0	NA
98	8	21	F	Filler	121	6	but	9	399.0	NA
98	8	21	F	Filler	121	6	didn't	10	235.0	NA
98	8	21	F	Filler	121	6	modify	11	300.0	NA
98	8	21	F	Filler	121	6	the	12	315.0	NA
98	8	21	F	Filler	121	6	seeds	13	269.0	NA
98	8	21	F	Filler	121	6	of	14	299.0	NA
98	8	21	F	Filler	121	6	in	15	467.0	NA
98	8	21	F	Filler	121	6	the	16	323.0	NA
98	8	21	F	Filler	121	6	lab.	17	193.0	NA
98	8	21	F	Question	121	6	NA	NA	13637.0	1
99	8	21	F	Filler	50	4	The	1	463.0	NA
99	8	21	F	Filler	50	4	new	2	231.0	NA
99	8	21	F	Filler	50	4	language	3	234.0	NA
99	8	21	F	Filler	50	4	requirement	4	416.0	NA
99	8	21	F	Filler	50	4	made	5	234.0	NA
99	8	21	F	Filler	50	4	all	6	234.0	NA
99	8	21	F	Filler	50	4	the	7	183.0	NA
99	8	21	F	Filler	50	4	students	8	200.0	NA
99	8	21	F	Filler	50	4	say	9	267.0	NA
99	8	21	F	Filler	50	4	bad	10	233.0	NA
99	8	21	F	Filler	50	4	things	11	234.0	NA
99	8	21	F	Filler	50	4	about	12	266.0	NA
99	8	21	F	Filler	50	4	the	13	268.0	NA
99	8	21	F	Filler	50	4	dean	14	501.0	NA
99	8	21	F	Filler	50	4	of	15	366.0	NA
99	8	21	F	Filler	50	4	the	16	200.0	NA
99	8	21	F	Filler	50	4	college.	17	533.0	NA
99	8	21	F	Question	50	4	NA	NA	2200.0	1
100	8	21	F	Filler	135	7	While	1	327.0	NA
100	8	21	F	Filler	135	7	Donna	2	202.0	NA
100	8	21	F	Filler	135	7	and	3	232.0	NA
100	8	21	F	Filler	135	7	Scott	4	233.0	NA
100	8	21	F	Filler	135	7	met	5	235.0	NA
100	8	21	F	Filler	135	7	their	6	233.0	NA
100	8	21	F	Filler	135	7	agent	7	200.0	NA
100	8	21	F	Filler	135	7	some	8	232.0	NA
100	8	21	F	Filler	135	7	friends	9	266.0	NA
100	8	21	F	Filler	135	7	called	10	167.0	NA
100	8	21	F	Filler	135	7	and	11	200.0	NA
100	8	21	F	Filler	135	7	left	12	234.0	NA
100	8	21	F	Filler	135	7	a	13	200.0	NA
100	8	21	F	Filler	135	7	message.	14	201.0	NA
100	8	21	F	Question	135	7	NA	NA	1299.0	1
101	8	21	F	swets	17	3	The	1	362.0	NA
101	8	21	F	swets	17	3	bank	2	265.0	NA
101	8	21	F	swets	17	3	manager	3	200.0	NA
101	8	21	F	swets	17	3	of	4	567.0	NA
101	8	21	F	swets	17	3	the	5	267.0	NA
101	8	21	F	swets	17	3	heiress	6	266.0	NA
101	8	21	F	swets	17	3	who	7	669.0	NA
101	8	21	F	swets	17	3	bankrupted	8	215.0	NA
101	8	21	F	swets	17	3	himself	9	367.0	NA
101	8	21	F	swets	17	3	last	10	300.0	NA
101	8	21	F	swets	17	3	year	11	168.0	NA
101	8	21	F	swets	17	3	still	12	499.0	NA
101	8	21	F	swets	17	3	made	13	400.0	NA
101	8	21	F	swets	17	3	risky	14	367.0	NA
101	8	21	F	swets	17	3	investments.	15	468.0	NA
101	8	21	F	Question	17	3	NA	NA	5450.0	0
102	8	21	F	Filler	65	4	Even	1	661.0	NA
102	8	21	F	Filler	65	4	though	2	201.0	NA
102	8	21	F	Filler	65	4	the	3	182.0	NA
102	8	21	F	Filler	65	4	goalie	4	135.0	NA
102	8	21	F	Filler	65	4	had	5	100.0	NA
102	8	21	F	Filler	65	4	a	6	182.0	NA
102	8	21	F	Filler	65	4	bad	7	167.0	NA
102	8	21	F	Filler	65	4	cold	8	117.0	NA
102	8	21	F	Filler	65	4	the	9	151.0	NA
102	8	21	F	Filler	65	4	team	10	333.0	NA
102	8	21	F	Filler	65	4	was	11	167.0	NA
102	8	21	F	Filler	65	4	preparing	12	166.0	NA
102	8	21	F	Filler	65	4	for	13	333.0	NA
102	8	21	F	Filler	65	4	the	14	218.0	NA
102	8	21	F	Filler	65	4	tournament.	15	566.0	NA
102	8	21	F	Question	65	4	NA	NA	1000.0	1
103	8	21	F	Filler	63	4	The	1	394.0	NA
103	8	21	F	Filler	63	4	bride	2	235.0	NA
103	8	21	F	Filler	63	4	was	3	199.0	NA
103	8	21	F	Filler	63	4	devastated	4	200.0	NA
103	8	21	F	Filler	63	4	to	5	251.0	NA
103	8	21	F	Filler	63	4	lose	6	232.0	NA
103	8	21	F	Filler	63	4	her	7	202.0	NA
103	8	21	F	Filler	63	4	gold	8	266.0	NA
103	8	21	F	Filler	63	4	ring	9	233.0	NA
103	8	21	F	Filler	63	4	with	10	167.0	NA
103	8	21	F	Filler	63	4	a	11	232.0	NA
103	8	21	F	Filler	63	4	gleaming	12	201.0	NA
103	8	21	F	Filler	63	4	diamond	13	234.0	NA
103	8	21	F	Filler	63	4	in	14	283.0	NA
103	8	21	F	Filler	63	4	the	15	233.0	NA
103	8	21	F	Filler	63	4	middle.	16	267.0	NA
103	8	21	F	Question	63	4	NA	NA	2684.0	1
104	8	21	F	swets	3	1	The	1	378.0	NA
104	8	21	F	swets	3	1	partner	2	300.0	NA
104	8	21	F	swets	3	1	of	3	267.0	NA
104	8	21	F	swets	3	1	the	4	184.0	NA
104	8	21	F	swets	3	1	salesman	5	199.0	NA
104	8	21	F	swets	3	1	who	6	250.0	NA
104	8	21	F	swets	3	1	amused	7	235.0	NA
104	8	21	F	swets	3	1	himself	8	234.0	NA
104	8	21	F	swets	3	1	quite	9	298.0	NA
104	8	21	F	swets	3	1	a	10	218.0	NA
104	8	21	F	swets	3	1	bit	11	266.0	NA
104	8	21	F	swets	3	1	was	12	200.0	NA
104	8	21	F	swets	3	1	writing	13	201.0	NA
104	8	21	F	swets	3	1	a	14	217.0	NA
104	8	21	F	swets	3	1	letter	15	282.0	NA
104	8	21	F	swets	3	1	to	16	284.0	NA
104	8	21	F	swets	3	1	the	17	333.0	NA
104	8	21	F	swets	3	1	editor.	18	233.0	NA
104	8	21	F	Question	3	1	NA	NA	1801.0	1
105	8	21	F	Filler	128	7	While	1	695.0	NA
105	8	21	F	Filler	128	7	the	2	251.0	NA
105	8	21	F	Filler	128	7	man	3	266.0	NA
105	8	21	F	Filler	128	7	was	4	267.0	NA
105	8	21	F	Filler	128	7	walking	5	266.0	NA
105	8	21	F	Filler	128	7	the	6	252.0	NA
105	8	21	F	Filler	128	7	poodle	7	267.0	NA
105	8	21	F	Filler	128	7	barked	8	300.0	NA
105	8	21	F	Filler	128	7	loudly.	9	233.0	NA
105	8	21	F	Question	128	7	NA	NA	3333.0	1
106	8	21	F	Filler	101	5	The	1	396.0	NA
106	8	21	F	Filler	101	5	friendly	2	199.0	NA
106	8	21	F	Filler	101	5	woman	3	233.0	NA
106	8	21	F	Filler	101	5	was	4	267.0	NA
106	8	21	F	Filler	101	5	insulted	5	232.0	NA
106	8	21	F	Filler	101	5	by	6	302.0	NA
106	8	21	F	Filler	101	5	the	7	282.0	NA
106	8	21	F	Filler	101	5	rude	8	234.0	NA
106	8	21	F	Filler	101	5	stranger	9	234.0	NA
106	8	21	F	Filler	101	5	because	10	232.0	NA
106	8	21	F	Filler	101	5	he	11	234.0	NA
106	8	21	F	Filler	101	5	didn't	12	266.0	NA
106	8	21	F	Filler	101	5	smile	13	235.0	NA
106	8	21	F	Filler	101	5	at	14	267.0	NA
106	8	21	F	Filler	101	5	her.	15	267.0	NA
106	8	21	F	Question	101	5	NA	NA	1582.0	1
107	8	21	F	swets	29	3	The	1	464.0	NA
107	8	21	F	swets	29	3	daughter	2	231.0	NA
107	8	21	F	swets	29	3	of	3	201.0	NA
107	8	21	F	swets	29	3	the	4	183.0	NA
107	8	21	F	swets	29	3	colonel	5	202.0	NA
107	8	21	F	swets	29	3	who	6	181.0	NA
107	8	21	F	swets	29	3	enjoyed	7	734.0	NA
107	8	21	F	swets	29	3	herself	8	300.0	NA
107	8	21	F	swets	29	3	a	9	301.0	NA
107	8	21	F	swets	29	3	lot	10	283.0	NA
107	8	21	F	swets	29	3	was	11	267.0	NA
107	8	21	F	swets	29	3	out	12	265.0	NA
107	8	21	F	swets	29	3	on	13	268.0	NA
107	8	21	F	swets	29	3	the	14	533.0	NA
107	8	21	F	swets	29	3	balcony.	15	267.0	NA
107	8	21	F	Question	29	3	NA	NA	6953.0	0
108	8	21	F	Filler	109	6	While	1	528.0	NA
108	8	21	F	Filler	109	6	the	2	234.0	NA
108	8	21	F	Filler	109	6	farmer	3	234.0	NA
108	8	21	F	Filler	109	6	steered	4	251.0	NA
108	8	21	F	Filler	109	6	the	5	366.0	NA
108	8	21	F	Filler	109	6	truck	6	232.0	NA
108	8	21	F	Filler	109	6	the	7	202.0	NA
108	8	21	F	Filler	109	6	tractor	8	233.0	NA
108	8	21	F	Filler	109	6	pulled	9	233.0	NA
108	8	21	F	Filler	109	6	the	10	283.0	NA
108	8	21	F	Filler	109	6	plough.	11	232.0	NA
108	8	21	F	Question	109	6	NA	NA	1501.0	1
109	8	21	F	Filler	110	6	While	1	595.0	NA
109	8	21	F	Filler	110	6	the	2	249.0	NA
109	8	21	F	Filler	110	6	lawyer	3	234.0	NA
109	8	21	F	Filler	110	6	was	4	200.0	NA
109	8	21	F	Filler	110	6	reading	5	299.0	NA
109	8	21	F	Filler	110	6	the	6	267.0	NA
109	8	21	F	Filler	110	6	will	7	233.0	NA
109	8	21	F	Filler	110	6	the	8	283.0	NA
109	8	21	F	Filler	110	6	contract	9	269.0	NA
109	8	21	F	Filler	110	6	remained	10	233.0	NA
109	8	21	F	Filler	110	6	on	11	266.0	NA
109	8	21	F	Filler	110	6	the	12	250.0	NA
109	8	21	F	Filler	110	6	desk.	13	234.0	NA
109	8	21	F	Question	110	6	NA	NA	1449.0	1
110	8	21	F	swets	12	1	The	1	345.0	NA
110	8	21	F	swets	12	1	maid	2	234.0	NA
110	8	21	F	swets	12	1	of	3	232.0	NA
110	8	21	F	swets	12	1	the	4	235.0	NA
110	8	21	F	swets	12	1	princess	5	234.0	NA
110	8	21	F	swets	12	1	who	6	233.0	NA
110	8	21	F	swets	12	1	scratched	7	233.0	NA
110	8	21	F	swets	12	1	herself	8	300.0	NA
110	8	21	F	swets	12	1	in	9	298.0	NA
110	8	21	F	swets	12	1	public	10	235.0	NA
110	8	21	F	swets	12	1	was	11	267.0	NA
110	8	21	F	swets	12	1	terribly	12	299.0	NA
110	8	21	F	swets	12	1	humiliated.	13	234.0	NA
110	8	21	F	Question	12	1	NA	NA	2501.0	1
111	8	21	F	Filler	52	4	The	1	545.0	NA
111	8	21	F	Filler	52	4	students	2	266.0	NA
111	8	21	F	Filler	52	4	were	3	217.0	NA
111	8	21	F	Filler	52	4	bored	4	167.0	NA
111	8	21	F	Filler	52	4	by	5	301.0	NA
111	8	21	F	Filler	52	4	the	6	217.0	NA
111	8	21	F	Filler	52	4	teacher.	7	267.0	NA
111	8	21	F	Question	52	4	NA	NA	2216.0	1
112	8	21	F	Filler	76	5	After	1	462.0	NA
112	8	21	F	Filler	76	5	fifty	2	299.0	NA
112	8	21	F	Filler	76	5	years	3	235.0	NA
112	8	21	F	Filler	76	5	of	4	267.0	NA
112	8	21	F	Filler	76	5	marriage	5	200.0	NA
112	8	21	F	Filler	76	5	the	6	232.0	NA
112	8	21	F	Filler	76	5	old	7	218.0	NA
112	8	21	F	Filler	76	5	couple	8	232.0	NA
112	8	21	F	Filler	76	5	still	9	235.0	NA
112	8	21	F	Filler	76	5	felt	10	298.0	NA
112	8	21	F	Filler	76	5	the	11	202.0	NA
112	8	21	F	Filler	76	5	same	12	233.0	NA
112	8	21	F	Filler	76	5	about	13	300.0	NA
112	8	21	F	Filler	76	5	each	14	299.0	NA
112	8	21	F	Filler	76	5	other	15	284.0	NA
112	8	21	F	Filler	76	5	as	16	333.0	NA
112	8	21	F	Filler	76	5	they	17	266.0	NA
112	8	21	F	Filler	76	5	had	18	268.0	NA
112	8	21	F	Filler	76	5	on	19	267.0	NA
112	8	21	F	Filler	76	5	their	20	233.0	NA
112	8	21	F	Filler	76	5	wedding	21	199.0	NA
112	8	21	F	Filler	76	5	day.	22	267.0	NA
112	8	21	F	Question	76	5	NA	NA	2467.0	1
113	8	21	F	Filler	138	7	While	1	395.0	NA
113	8	21	F	Filler	138	7	Pedro	2	232.0	NA
113	8	21	F	Filler	138	7	was	3	267.0	NA
113	8	21	F	Filler	138	7	swimming	4	200.0	NA
113	8	21	F	Filler	138	7	the	5	216.0	NA
113	8	21	F	Filler	138	7	lifeguard	6	268.0	NA
113	8	21	F	Filler	138	7	sat	7	234.0	NA
113	8	21	F	Filler	138	7	in	8	234.0	NA
113	8	21	F	Filler	138	7	his	9	232.0	NA
113	8	21	F	Filler	138	7	chair.	10	569.0	NA
113	8	21	F	Question	138	7	NA	NA	2882.0	1
114	8	21	F	Filler	112	6	As	1	395.0	NA
114	8	21	F	Filler	112	6	the	2	266.0	NA
114	8	21	F	Filler	112	6	dog	3	234.0	NA
114	8	21	F	Filler	112	6	was	4	300.0	NA
114	8	21	F	Filler	112	6	calming	5	234.0	NA
114	8	21	F	Filler	112	6	down	6	233.0	NA
114	8	21	F	Filler	112	6	the	7	233.0	NA
114	8	21	F	Filler	112	6	puppy	8	201.0	NA
114	8	21	F	Filler	112	6	slept	9	200.0	NA
114	8	21	F	Filler	112	6	in	10	216.0	NA
114	8	21	F	Filler	112	6	the	11	316.0	NA
114	8	21	F	Filler	112	6	cage.	12	266.0	NA
114	8	21	F	Question	112	6	NA	NA	986.0	1
115	8	21	F	swets	23	3	The	1	345.0	NA
115	8	21	F	swets	23	3	father	2	266.0	NA
115	8	21	F	swets	23	3	of	3	267.0	NA
115	8	21	F	swets	23	3	the	4	218.0	NA
115	8	21	F	swets	23	3	ballerina	5	266.0	NA
115	8	21	F	swets	23	3	who	6	266.0	NA
115	8	21	F	swets	23	3	found	7	266.0	NA
115	8	21	F	swets	23	3	himself	8	269.0	NA
115	8	21	F	swets	23	3	in	9	467.0	NA
115	8	21	F	swets	23	3	a	10	450.0	NA
115	8	21	F	swets	23	3	lot	11	300.0	NA
115	8	21	F	swets	23	3	of	12	200.0	NA
115	8	21	F	swets	23	3	trouble	13	266.0	NA
115	8	21	F	swets	23	3	phoned	14	234.0	NA
115	8	21	F	swets	23	3	the	15	267.0	NA
115	8	21	F	swets	23	3	police.	16	233.0	NA
115	8	21	F	Question	23	3	NA	NA	1250.0	1
116	8	21	F	Filler	43	4	The	1	1796.0	NA
116	8	21	F	Filler	43	4	movie	2	200.0	NA
116	8	21	F	Filler	43	4	director	3	133.0	NA
116	8	21	F	Filler	43	4	refused	4	168.0	NA
116	8	21	F	Filler	43	4	to	5	199.0	NA
116	8	21	F	Filler	43	4	work	6	366.0	NA
116	8	21	F	Filler	43	4	with	7	1719.0	NA
116	8	21	F	Filler	43	4	the	8	217.0	NA
116	8	21	F	Filler	43	4	producer	9	231.0	NA
116	8	21	F	Filler	43	4	again	10	435.0	NA
116	8	21	F	Filler	43	4	after	11	332.0	NA
116	8	21	F	Filler	43	4	winning	12	167.0	NA
116	8	21	F	Filler	43	4	the	13	249.0	NA
116	8	21	F	Filler	43	4	grand	14	200.0	NA
116	8	21	F	Filler	43	4	prize.	15	234.0	NA
116	8	21	F	Question	43	4	NA	NA	2801.0	1
117	8	21	F	swets	24	1	The	1	744.0	NA
117	8	21	F	swets	24	1	assistant	2	268.0	NA
117	8	21	F	swets	24	1	of	3	299.0	NA
117	8	21	F	swets	24	1	the	4	268.0	NA
117	8	21	F	swets	24	1	chaplain	5	301.0	NA
117	8	21	F	swets	24	1	who	6	298.0	NA
117	8	21	F	swets	24	1	drew	7	251.0	NA
117	8	21	F	swets	24	1	attention	8	267.0	NA
117	8	21	F	swets	24	1	to	9	250.0	NA
117	8	21	F	swets	24	1	himself	10	300.0	NA
117	8	21	F	swets	24	1	all	11	299.0	NA
117	8	21	F	swets	24	1	the	12	301.0	NA
117	8	21	F	swets	24	1	time	13	300.0	NA
117	8	21	F	swets	24	1	hated	14	301.0	NA
117	8	21	F	swets	24	1	small	15	299.0	NA
117	8	21	F	swets	24	1	children.	16	266.0	NA
117	8	21	F	Question	24	1	NA	NA	2652.0	1
118	8	21	F	Filler	91	5	The	1	362.0	NA
118	8	21	F	Filler	91	5	workman	2	333.0	NA
118	8	21	F	Filler	91	5	dropped	3	200.0	NA
118	8	21	F	Filler	91	5	the	4	151.0	NA
118	8	21	F	Filler	91	5	assistant	5	267.0	NA
118	8	21	F	Filler	91	5	who	6	284.0	NA
118	8	21	F	Filler	91	5	complained	7	266.0	NA
118	8	21	F	Filler	91	5	bitterly	8	266.0	NA
118	8	21	F	Filler	91	5	onto	9	235.0	NA
118	8	21	F	Filler	91	5	a	10	267.0	NA
118	8	21	F	Filler	91	5	lower	11	248.0	NA
118	8	21	F	Filler	91	5	floor.	12	200.0	NA
118	8	21	F	Question	91	5	NA	NA	2102.0	1
119	8	21	F	Filler	79	5	Although	1	429.0	NA
119	8	21	F	Filler	79	5	the	2	316.0	NA
119	8	21	F	Filler	79	5	mechanic	3	200.0	NA
119	8	21	F	Filler	79	5	said	4	234.0	NA
119	8	21	F	Filler	79	5	the	5	249.0	NA
119	8	21	F	Filler	79	5	job	6	234.0	NA
119	8	21	F	Filler	79	5	would	7	233.0	NA
119	8	21	F	Filler	79	5	take	8	167.0	NA
119	8	21	F	Filler	79	5	four	9	199.0	NA
119	8	21	F	Filler	79	5	days	10	301.0	NA
119	8	21	F	Filler	79	5	the	11	118.0	NA
119	8	21	F	Filler	79	5	client	12	700.0	NA
119	8	21	F	Filler	79	5	didn't	13	432.0	NA
119	8	21	F	Filler	79	5	receive	14	333.0	NA
119	8	21	F	Filler	79	5	her	15	351.0	NA
119	8	21	F	Filler	79	5	car	16	334.0	NA
119	8	21	F	Filler	79	5	for	17	266.0	NA
119	8	21	F	Filler	79	5	six	18	267.0	NA
119	8	21	F	Filler	79	5	weeks.	19	300.0	NA
119	8	21	F	Question	79	5	NA	NA	1317.0	1
120	8	21	F	swets	22	2	The	1	329.0	NA
120	8	21	F	swets	22	2	niece	2	266.0	NA
120	8	21	F	swets	22	2	of	3	200.0	NA
120	8	21	F	swets	22	2	the	4	167.0	NA
120	8	21	F	swets	22	2	commander	5	232.0	NA
120	8	21	F	swets	22	2	who	6	185.0	NA
120	8	21	F	swets	22	2	calmed	7	233.0	NA
120	8	21	F	swets	22	2	himself	8	234.0	NA
120	8	21	F	swets	22	2	after	9	266.0	NA
120	8	21	F	swets	22	2	the	10	234.0	NA
120	8	21	F	swets	22	2	tragedy	11	267.0	NA
120	8	21	F	swets	22	2	was	12	299.0	NA
120	8	21	F	swets	22	2	waiting	13	233.0	NA
120	8	21	F	swets	22	2	for	14	134.0	NA
120	8	21	F	swets	22	2	the	15	265.0	NA
120	8	21	F	swets	22	2	doctor.	16	201.0	NA
120	8	21	F	Question	22	2	NA	NA	2051.0	1
121	8	21	F	Filler	127	7	While	1	443.0	NA
121	8	21	F	Filler	127	7	Linda	2	234.0	NA
121	8	21	F	Filler	127	7	wrote	3	251.0	NA
121	8	21	F	Filler	127	7	the	4	215.0	NA
121	8	21	F	Filler	127	7	letter	5	301.0	NA
121	8	21	F	Filler	127	7	arrived	6	301.0	NA
121	8	21	F	Filler	127	7	from	7	1268.0	NA
121	8	21	F	Filler	127	7	Chicago.	8	465.0	NA
121	8	21	F	Question	127	7	NA	NA	1200.0	1
122	8	21	F	Filler	74	5	My	1	495.0	NA
122	8	21	F	Filler	74	5	former	2	167.0	NA
122	8	21	F	Filler	74	5	girlfriend	3	234.0	NA
122	8	21	F	Filler	74	5	criticized	4	300.0	NA
122	8	21	F	Filler	74	5	the	5	267.0	NA
122	8	21	F	Filler	74	5	author's	6	299.0	NA
122	8	21	F	Filler	74	5	agent	7	268.0	NA
122	8	21	F	Filler	74	5	because	8	232.0	NA
122	8	21	F	Filler	74	5	he	9	318.0	NA
122	8	21	F	Filler	74	5	had	10	200.0	NA
122	8	21	F	Filler	74	5	failed	11	200.0	NA
122	8	21	F	Filler	74	5	to	12	216.0	NA
122	8	21	F	Filler	74	5	meet	13	201.0	NA
122	8	21	F	Filler	74	5	a	14	149.0	NA
122	8	21	F	Filler	74	5	deadline.	15	200.0	NA
122	8	21	F	Question	74	5	NA	NA	1551.0	1
123	8	21	F	Filler	111	6	While	1	294.0	NA
123	8	21	F	Filler	111	6	the	2	200.0	NA
123	8	21	F	Filler	111	6	clown	3	167.0	NA
123	8	21	F	Filler	111	6	juggled	4	101.0	NA
123	8	21	F	Filler	111	6	the	5	350.0	NA
123	8	21	F	Filler	111	6	balls	6	166.0	NA
123	8	21	F	Filler	111	6	fell	7	167.0	NA
123	8	21	F	Filler	111	6	to	8	135.0	NA
123	8	21	F	Filler	111	6	the	9	200.0	NA
123	8	21	F	Filler	111	6	ground.	10	199.0	NA
123	8	21	F	Question	111	6	NA	NA	1399.0	1
124	8	21	F	Filler	97	5	The	1	379.0	NA
124	8	21	F	Filler	97	5	tall	2	200.0	NA
124	8	21	F	Filler	97	5	man	3	216.0	NA
124	8	21	F	Filler	97	5	laughed	4	166.0	NA
124	8	21	F	Filler	97	5	at	5	201.0	NA
124	8	21	F	Filler	97	5	the	6	151.0	NA
124	8	21	F	Filler	97	5	clumsy	7	166.0	NA
124	8	21	F	Filler	97	5	child	8	168.0	NA
124	8	21	F	Filler	97	5	who	9	150.0	NA
124	8	21	F	Filler	97	5	spilled	10	166.0	NA
124	8	21	F	Filler	97	5	the	11	183.0	NA
124	8	21	F	Filler	97	5	milk	12	166.0	NA
124	8	21	F	Filler	97	5	on	13	200.0	NA
124	8	21	F	Filler	97	5	himself.	14	200.0	NA
124	8	21	F	Question	97	5	NA	NA	1784.0	1
125	8	21	F	Filler	53	4	The	1	311.0	NA
125	8	21	F	Filler	53	4	clay	2	168.0	NA
125	8	21	F	Filler	53	4	pot	3	233.0	NA
125	8	21	F	Filler	53	4	was	4	200.0	NA
125	8	21	F	Filler	53	4	full	5	199.0	NA
125	8	21	F	Filler	53	4	of	6	168.0	NA
125	8	21	F	Filler	53	4	gold	7	167.0	NA
125	8	21	F	Filler	53	4	coins	8	199.0	NA
125	8	21	F	Filler	53	4	and	9	166.0	NA
125	8	21	F	Filler	53	4	the	10	166.0	NA
125	8	21	F	Filler	53	4	thief	11	169.0	NA
125	8	21	F	Filler	53	4	knew	12	199.0	NA
125	8	21	F	Filler	53	4	he	13	167.0	NA
125	8	21	F	Filler	53	4	had	14	167.0	NA
125	8	21	F	Filler	53	4	finally	15	199.0	NA
125	8	21	F	Filler	53	4	hit	16	167.0	NA
125	8	21	F	Filler	53	4	the	17	151.0	NA
125	8	21	F	Filler	53	4	jackpot.	18	201.0	NA
125	8	21	F	Question	53	4	NA	NA	1532.0	1
126	8	21	F	Filler	56	4	The	1	494.0	NA
126	8	21	F	Filler	56	4	actor	2	168.0	NA
126	8	21	F	Filler	56	4	said	3	233.0	NA
126	8	21	F	Filler	56	4	the	4	167.0	NA
126	8	21	F	Filler	56	4	audiences	5	167.0	NA
126	8	21	F	Filler	56	4	believed	6	232.0	NA
126	8	21	F	Filler	56	4	the	7	168.0	NA
126	8	21	F	Filler	56	4	nasty	8	232.0	NA
126	8	21	F	Filler	56	4	remarks	9	168.0	NA
126	8	21	F	Filler	56	4	made	10	266.0	NA
126	8	21	F	Filler	56	4	by	11	201.0	NA
126	8	21	F	Filler	56	4	the	12	166.0	NA
126	8	21	F	Filler	56	4	film	13	233.0	NA
126	8	21	F	Filler	56	4	critic.	14	200.0	NA
126	8	21	F	Question	56	4	NA	NA	2284.0	0
127	8	21	F	Filler	59	4	The	1	296.0	NA
127	8	21	F	Filler	59	4	conductor	2	266.0	NA
127	8	21	F	Filler	59	4	of	3	266.0	NA
127	8	21	F	Filler	59	4	the	4	201.0	NA
127	8	21	F	Filler	59	4	orchestra	5	166.0	NA
127	8	21	F	Filler	59	4	with	6	201.0	NA
127	8	21	F	Filler	59	4	the	7	198.0	NA
127	8	21	F	Filler	59	4	bald	8	203.0	NA
127	8	21	F	Filler	59	4	head	9	199.0	NA
127	8	21	F	Filler	59	4	plays	10	168.0	NA
127	8	21	F	Filler	59	4	excellently.	11	165.0	NA
127	8	21	F	Question	59	4	NA	NA	1617.0	1
128	8	21	F	Filler	45	4	The	1	328.0	NA
128	8	21	F	Filler	45	4	plumber	2	199.0	NA
128	8	21	F	Filler	45	4	repaired	3	268.0	NA
128	8	21	F	Filler	45	4	the	4	284.0	NA
128	8	21	F	Filler	45	4	sink	5	232.0	NA
128	8	21	F	Filler	45	4	of	6	168.0	NA
128	8	21	F	Filler	45	4	the	7	198.0	NA
128	8	21	F	Filler	45	4	tenant	8	168.0	NA
128	8	21	F	Filler	45	4	because	9	567.0	NA
128	8	21	F	Filler	45	4	he	10	350.0	NA
128	8	21	F	Filler	45	4	had	11	333.0	NA
128	8	21	F	Filler	45	4	just	12	266.0	NA
128	8	21	F	Filler	45	4	moved	13	300.0	NA
128	8	21	F	Filler	45	4	in.	14	518.0	NA
128	8	21	F	Question	45	4	NA	NA	1251.0	1
129	8	21	F	swets	2	3	The	1	244.0	NA
129	8	21	F	swets	2	3	sister	2	284.0	NA
129	8	21	F	swets	2	3	of	3	232.0	NA
129	8	21	F	swets	2	3	the	4	218.0	NA
129	8	21	F	swets	2	3	fireman	5	267.0	NA
129	8	21	F	swets	2	3	who	6	299.0	NA
129	8	21	F	swets	2	3	criticized	7	234.0	NA
129	8	21	F	swets	2	3	herself	8	233.0	NA
129	8	21	F	swets	2	3	far	9	269.0	NA
129	8	21	F	swets	2	3	too	10	231.0	NA
129	8	21	F	swets	2	3	often	11	235.0	NA
129	8	21	F	swets	2	3	was	12	300.0	NA
129	8	21	F	swets	2	3	painting	13	200.0	NA
129	8	21	F	swets	2	3	the	14	267.0	NA
129	8	21	F	swets	2	3	bedroom.	15	233.0	NA
129	8	21	F	Question	2	3	NA	NA	5451.0	0
130	8	21	F	Filler	103	5	The	1	280.0	NA
130	8	21	F	Filler	103	5	desperate	2	266.0	NA
130	8	21	F	Filler	103	5	thief	3	200.0	NA
130	8	21	F	Filler	103	5	ran	4	234.0	NA
130	8	21	F	Filler	103	5	over	5	233.0	NA
130	8	21	F	Filler	103	5	a	6	199.0	NA
130	8	21	F	Filler	103	5	child	7	202.0	NA
130	8	21	F	Filler	103	5	in	8	233.0	NA
130	8	21	F	Filler	103	5	an	9	201.0	NA
130	8	21	F	Filler	103	5	attempt	10	200.0	NA
130	8	21	F	Filler	103	5	to	11	216.0	NA
130	8	21	F	Filler	103	5	dodge	12	200.0	NA
130	8	21	F	Filler	103	5	the	13	216.0	NA
130	8	21	F	Filler	103	5	cops.	14	233.0	NA
130	8	21	F	Question	103	5	NA	NA	1450.0	0
131	8	21	F	Filler	133	7	While	1	345.0	NA
131	8	21	F	Filler	133	7	the	2	266.0	NA
131	8	21	F	Filler	133	7	lawyers	3	168.0	NA
131	8	21	F	Filler	133	7	fought	4	266.0	NA
131	8	21	F	Filler	133	7	the	5	200.0	NA
131	8	21	F	Filler	133	7	ruling	6	266.0	NA
131	8	21	F	Filler	133	7	the	7	217.0	NA
131	8	21	F	Filler	133	7	judge	8	235.0	NA
131	8	21	F	Filler	133	7	announced	9	268.0	NA
131	8	21	F	Filler	133	7	the	10	182.0	NA
131	8	21	F	Filler	133	7	decision.	11	301.0	NA
131	8	21	F	Question	133	7	NA	NA	4433.0	1
132	8	21	F	Filler	113	6	While	1	377.0	NA
132	8	21	F	Filler	113	6	Noah	2	200.0	NA
132	8	21	F	Filler	113	6	was	3	168.0	NA
132	8	21	F	Filler	113	6	waking	4	1833.0	NA
132	8	21	F	Filler	113	6	up	5	267.0	NA
132	8	21	F	Filler	113	6	the	6	250.0	NA
132	8	21	F	Filler	113	6	man	7	233.0	NA
132	8	21	F	Filler	113	6	the	8	267.0	NA
132	8	21	F	Filler	113	6	neighbor	9	234.0	NA
132	8	21	F	Filler	113	6	coughed	10	600.0	NA
132	8	21	F	Filler	113	6	loudly.	11	700.0	NA
132	8	21	F	Question	113	6	NA	NA	2684.0	1
133	8	21	F	Filler	57	4	The	1	428.0	NA
133	8	21	F	Filler	57	4	architect	2	366.0	NA
133	8	21	F	Filler	57	4	was	3	335.0	NA
133	8	21	F	Filler	57	4	embarrassed	4	199.0	NA
133	8	21	F	Filler	57	4	by	5	434.0	NA
133	8	21	F	Filler	57	4	the	6	384.0	NA
133	8	21	F	Filler	57	4	memo	7	234.0	NA
133	8	21	F	Filler	57	4	of	8	233.0	NA
133	8	21	F	Filler	57	4	the	9	200.0	NA
133	8	21	F	Filler	57	4	engineer	10	367.0	NA
133	8	21	F	Filler	57	4	because	11	233.0	NA
133	8	21	F	Filler	57	4	it	12	167.0	NA
133	8	21	F	Filler	57	4	said	13	134.0	NA
133	8	21	F	Filler	57	4	that	14	165.0	NA
133	8	21	F	Filler	57	4	his	15	134.0	NA
133	8	21	F	Filler	57	4	building	16	166.0	NA
133	8	21	F	Filler	57	4	would	17	133.0	NA
133	8	21	F	Filler	57	4	collapse.	18	135.0	NA
133	8	21	F	Question	57	4	NA	NA	1750.0	1
134	8	21	F	swets	34	2	The	1	512.0	NA
134	8	21	F	swets	34	2	waiter	2	200.0	NA
134	8	21	F	swets	34	2	of	3	249.0	NA
134	8	21	F	swets	34	2	the	4	185.0	NA
134	8	21	F	swets	34	2	woman	5	266.0	NA
134	8	21	F	swets	34	2	who	6	399.0	NA
134	8	21	F	swets	34	2	considered	7	200.0	NA
134	8	21	F	swets	34	2	herself	8	202.0	NA
134	8	21	F	swets	34	2	a	9	200.0	NA
134	8	21	F	swets	34	2	natural	10	265.0	NA
134	8	21	F	swets	34	2	beauty	11	234.0	NA
134	8	21	F	swets	34	2	spilled	12	201.0	NA
134	8	21	F	swets	34	2	the	13	301.0	NA
134	8	21	F	swets	34	2	drinks.	14	265.0	NA
134	8	21	F	Question	34	2	NA	NA	2449.0	1
135	8	21	F	Filler	69	4	The	1	345.0	NA
135	8	21	F	Filler	69	4	tiny	2	268.0	NA
135	8	21	F	Filler	69	4	child	3	199.0	NA
135	8	21	F	Filler	69	4	rolled	4	233.0	NA
135	8	21	F	Filler	69	4	the	5	200.0	NA
135	8	21	F	Filler	69	4	piece	6	233.0	NA
135	8	21	F	Filler	69	4	of	7	235.0	NA
135	8	21	F	Filler	69	4	the	8	149.0	NA
135	8	21	F	Filler	69	4	toy	9	234.0	NA
135	8	21	F	Filler	69	4	into	10	167.0	NA
135	8	21	F	Filler	69	4	the	11	183.0	NA
135	8	21	F	Filler	69	4	next	12	199.0	NA
135	8	21	F	Filler	69	4	room	13	168.0	NA
135	8	21	F	Filler	69	4	after	14	233.0	NA
135	8	21	F	Filler	69	4	it	15	301.0	NA
135	8	21	F	Filler	69	4	broke	16	332.0	NA
135	8	21	F	Filler	69	4	off.	17	335.0	NA
135	8	21	F	Question	69	4	NA	NA	1232.0	1
136	8	21	F	swets	14	3	The	1	563.0	NA
136	8	21	F	swets	14	3	father	2	299.0	NA
136	8	21	F	swets	14	3	of	3	300.0	NA
136	8	21	F	swets	14	3	the	4	233.0	NA
136	8	21	F	swets	14	3	nurse	5	267.0	NA
136	8	21	F	swets	14	3	who	6	234.0	NA
136	8	21	F	swets	14	3	injured	7	267.0	NA
136	8	21	F	swets	14	3	himself	8	300.0	NA
136	8	21	F	swets	14	3	last	9	267.0	NA
136	8	21	F	swets	14	3	summer	10	267.0	NA
136	8	21	F	swets	14	3	had	11	299.0	NA
136	8	21	F	swets	14	3	lived	12	301.0	NA
136	8	21	F	swets	14	3	in	13	267.0	NA
136	8	21	F	swets	14	3	Wales.	14	301.0	NA
136	8	21	F	Question	14	3	NA	NA	4251.0	0
137	8	21	F	Filler	40	4	The	1	512.0	NA
137	8	21	F	Filler	40	4	boy's	2	265.0	NA
137	8	21	F	Filler	40	4	mother	3	201.0	NA
137	8	21	F	Filler	40	4	was	4	200.0	NA
137	8	21	F	Filler	40	4	very	5	300.0	NA
137	8	21	F	Filler	40	4	happy	6	400.0	NA
137	8	21	F	Filler	40	4	to	7	201.0	NA
137	8	21	F	Filler	40	4	see	8	233.0	NA
137	8	21	F	Filler	40	4	good	9	233.0	NA
137	8	21	F	Filler	40	4	grades	10	233.0	NA
137	8	21	F	Filler	40	4	on	11	301.0	NA
137	8	21	F	Filler	40	4	his	12	201.0	NA
137	8	21	F	Filler	40	4	report	13	200.0	NA
137	8	21	F	Filler	40	4	card.	14	365.0	NA
137	8	21	F	Question	40	4	NA	NA	1800.0	1
138	8	21	F	Filler	118	6	As	1	395.0	NA
138	8	21	F	Filler	118	6	the	2	184.0	NA
138	8	21	F	Filler	118	6	dog	3	167.0	NA
138	8	21	F	Filler	118	6	ran	4	267.0	NA
138	8	21	F	Filler	118	6	Wanda	5	199.0	NA
138	8	21	F	Filler	118	6	watched	6	267.0	NA
138	8	21	F	Filler	118	6	from	7	266.0	NA
138	8	21	F	Filler	118	6	the	8	201.0	NA
138	8	21	F	Filler	118	6	window.	9	200.0	NA
138	8	21	F	Question	118	6	NA	NA	1000.0	1
139	8	21	F	swets	30	1	The	1	346.0	NA
139	8	21	F	swets	30	1	maid	2	232.0	NA
139	8	21	F	swets	30	1	of	3	135.0	NA
139	8	21	F	swets	30	1	the	4	167.0	NA
139	8	21	F	swets	30	1	baroness	5	133.0	NA
139	8	21	F	swets	30	1	who	6	199.0	NA
139	8	21	F	swets	30	1	prepared	7	466.0	NA
139	8	21	F	swets	30	1	herself	8	234.0	NA
139	8	21	F	swets	30	1	very	9	199.0	NA
139	8	21	F	swets	30	1	thoroughly	10	201.0	NA
139	8	21	F	swets	30	1	came	11	233.0	NA
139	8	21	F	swets	30	1	from	12	202.0	NA
139	8	21	F	swets	30	1	the	13	249.0	NA
139	8	21	F	swets	30	1	south.	14	200.0	NA
139	8	21	F	Question	30	1	NA	NA	1800.0	1
140	8	21	F	Filler	72	4	The	1	345.0	NA
140	8	21	F	Filler	72	4	secretaries	2	200.0	NA
140	8	21	F	Filler	72	4	couldn't	3	233.0	NA
140	8	21	F	Filler	72	4	break	4	234.0	NA
140	8	21	F	Filler	72	4	away	5	200.0	NA
140	8	21	F	Filler	72	4	from	6	201.0	NA
140	8	21	F	Filler	72	4	their	7	199.0	NA
140	8	21	F	Filler	72	4	habit	8	167.0	NA
140	8	21	F	Filler	72	4	of	9	200.0	NA
140	8	21	F	Filler	72	4	coffee	10	233.0	NA
140	8	21	F	Filler	72	4	and	11	202.0	NA
140	8	21	F	Filler	72	4	cigarettes	12	232.0	NA
140	8	21	F	Filler	72	4	during	13	316.0	NA
140	8	21	F	Filler	72	4	their	14	235.0	NA
140	8	21	F	Filler	72	4	breaks.	15	232.0	NA
140	8	21	F	Question	72	4	NA	NA	1551.0	1
141	8	21	F	Filler	93	5	The	1	428.0	NA
141	8	21	F	Filler	93	5	new	2	201.0	NA
141	8	21	F	Filler	93	5	book	3	165.0	NA
141	8	21	F	Filler	93	5	replaced	4	234.0	NA
141	8	21	F	Filler	93	5	the	5	201.0	NA
141	8	21	F	Filler	93	5	work	6	232.0	NA
141	8	21	F	Filler	93	5	of	7	168.0	NA
141	8	21	F	Filler	93	5	the	8	115.0	NA
141	8	21	F	Filler	93	5	leaders	9	234.0	NA
141	8	21	F	Filler	93	5	in	10	166.0	NA
141	8	21	F	Filler	93	5	the	11	201.0	NA
141	8	21	F	Filler	93	5	field	12	168.0	NA
141	8	21	F	Filler	93	5	of	13	165.0	NA
141	8	21	F	Filler	93	5	physical	14	169.0	NA
141	8	21	F	Filler	93	5	chemistry.	15	298.0	NA
141	8	21	F	Question	93	5	NA	NA	1251.0	1
142	8	21	F	swets	21	1	The	1	362.0	NA
142	8	21	F	swets	21	1	son	2	167.0	NA
142	8	21	F	swets	21	1	of	3	233.0	NA
142	8	21	F	swets	21	1	the	4	134.0	NA
142	8	21	F	swets	21	1	janitor	5	166.0	NA
142	8	21	F	swets	21	1	who	6	134.0	NA
142	8	21	F	swets	21	1	educated	7	167.0	NA
142	8	21	F	swets	21	1	himself	8	166.0	NA
142	8	21	F	swets	21	1	at	9	200.0	NA
142	8	21	F	swets	21	1	night	10	201.0	NA
142	8	21	F	swets	21	1	loved	11	166.0	NA
142	8	21	F	swets	21	1	going	12	199.0	NA
142	8	21	F	swets	21	1	to	13	151.0	NA
142	8	21	F	swets	21	1	the	14	182.0	NA
142	8	21	F	swets	21	1	theatre.	15	135.0	NA
142	8	21	F	Question	21	1	NA	NA	2800.0	1
143	8	21	F	Filler	86	5	The	1	412.0	NA
143	8	21	F	Filler	86	5	family's	2	400.0	NA
143	8	21	F	Filler	86	5	television	3	333.0	NA
143	8	21	F	Filler	86	5	stopped	4	433.0	NA
143	8	21	F	Filler	86	5	working	5	301.0	NA
143	8	21	F	Filler	86	5	two	6	350.0	NA
143	8	21	F	Filler	86	5	days	7	333.0	NA
143	8	21	F	Filler	86	5	after	8	268.0	NA
143	8	21	F	Filler	86	5	the	9	267.0	NA
143	8	21	F	Filler	86	5	warranty	10	333.0	NA
143	8	21	F	Filler	86	5	expired.	11	416.0	NA
143	8	21	F	Question	86	5	NA	NA	1351.0	1
