trial	subj	age	gender	stimulustype	item	condition	word	position	rt	correct
0	10	19	F	Filler	89	5	Jim	1	660.0	NA
0	10	19	F	Filler	89	5	watered	2	785.0	NA
0	10	19	F	Filler	89	5	the	3	616.0	NA
0	10	19	F	Filler	89	5	tropical	4	701.0	NA
0	10	19	F	Filler	89	5	plants	5	982.0	NA
0	10	19	F	Filler	89	5	of	6	817.0	NA
0	10	19	F	Filler	89	5	his	7	801.0	NA
0	10	19	F	Filler	89	5	neighbor	8	818.0	NA
0	10	19	F	Filler	89	5	because	9	734.0	NA
0	10	19	F	Filler	89	5	she	10	633.0	NA
0	10	19	F	Filler	89	5	had	11	767.0	NA
0	10	19	F	Filler	89	5	gone	12	700.0	NA
0	10	19	F	Filler	89	5	out	13	1016.0	NA
0	10	19	F	Filler	89	5	of	14	635.0	NA
0	10	19	F	Filler	89	5	town	15	483.0	NA
0	10	19	F	Filler	89	5	for	16	700.0	NA
0	10	19	F	Filler	89	5	a	17	617.0	NA
0	10	19	F	Filler	89	5	few	18	634.0	NA
0	10	19	F	Filler	89	5	days.	19	484.0	NA
0	10	19	F	Question	89	5	NA	NA	1917.0	1
1	10	19	F	Filler	37	4	The	1	844.0	NA
1	10	19	F	Filler	37	4	party	2	702.0	NA
1	10	19	F	Filler	37	4	attracted	3	699.0	NA
1	10	19	F	Filler	37	4	the	4	600.0	NA
1	10	19	F	Filler	37	4	fraternity	5	902.0	NA
1	10	19	F	Filler	37	4	members	6	900.0	NA
1	10	19	F	Filler	37	4	whose	7	750.0	NA
1	10	19	F	Filler	37	4	house	8	766.0	NA
1	10	19	F	Filler	37	4	had	9	783.0	NA
1	10	19	F	Filler	37	4	been	10	801.0	NA
1	10	19	F	Filler	37	4	seized	11	635.0	NA
1	10	19	F	Filler	37	4	by	12	549.0	NA
1	10	19	F	Filler	37	4	drug	13	584.0	NA
1	10	19	F	Filler	37	4	agents.	14	550.0	NA
1	10	19	F	Question	37	4	NA	NA	2501.0	1
2	10	19	F	Filler	66	4	The	1	528.0	NA
2	10	19	F	Filler	66	4	rare	2	816.0	NA
2	10	19	F	Filler	66	4	and	3	619.0	NA
2	10	19	F	Filler	66	4	exotic	4	566.0	NA
2	10	19	F	Filler	66	4	monkey	5	666.0	NA
2	10	19	F	Filler	66	4	was	6	602.0	NA
2	10	19	F	Filler	66	4	the	7	633.0	NA
2	10	19	F	Filler	66	4	center	8	667.0	NA
2	10	19	F	Filler	66	4	of	9	467.0	NA
2	10	19	F	Filler	66	4	attention	10	498.0	NA
2	10	19	F	Filler	66	4	at	11	602.0	NA
2	10	19	F	Filler	66	4	the	12	499.0	NA
2	10	19	F	Filler	66	4	zoo.	13	750.0	NA
2	10	19	F	Question	66	4	NA	NA	1368.0	1
3	10	19	F	Filler	110	6	While	1	445.0	NA
3	10	19	F	Filler	110	6	the	2	767.0	NA
3	10	19	F	Filler	110	6	lawyer	3	634.0	NA
3	10	19	F	Filler	110	6	was	4	833.0	NA
3	10	19	F	Filler	110	6	reading	5	766.0	NA
3	10	19	F	Filler	110	6	the	6	635.0	NA
3	10	19	F	Filler	110	6	will	7	668.0	NA
3	10	19	F	Filler	110	6	the	8	582.0	NA
3	10	19	F	Filler	110	6	contract	9	600.0	NA
3	10	19	F	Filler	110	6	remained	10	700.0	NA
3	10	19	F	Filler	110	6	on	11	584.0	NA
3	10	19	F	Filler	110	6	the	12	600.0	NA
3	10	19	F	Filler	110	6	desk.	13	1468.0	NA
3	10	19	F	Question	110	6	NA	NA	1332.0	1
4	10	19	F	swets	21	3	The	1	495.0	NA
4	10	19	F	swets	21	3	wife	2	633.0	NA
4	10	19	F	swets	21	3	of	3	584.0	NA
4	10	19	F	swets	21	3	the	4	533.0	NA
4	10	19	F	swets	21	3	janitor	5	717.0	NA
4	10	19	F	swets	21	3	who	6	716.0	NA
4	10	19	F	swets	21	3	educated	7	701.0	NA
4	10	19	F	swets	21	3	herself	8	718.0	NA
4	10	19	F	swets	21	3	at	9	665.0	NA
4	10	19	F	swets	21	3	night	10	852.0	NA
4	10	19	F	swets	21	3	loved	11	634.0	NA
4	10	19	F	swets	21	3	going	12	650.0	NA
4	10	19	F	swets	21	3	to	13	550.0	NA
4	10	19	F	swets	21	3	the	14	532.0	NA
4	10	19	F	swets	21	3	theatre.	15	585.0	NA
4	10	19	F	Question	21	3	NA	NA	3133.0	1
5	10	19	F	Filler	101	5	The	1	596.0	NA
5	10	19	F	Filler	101	5	friendly	2	866.0	NA
5	10	19	F	Filler	101	5	woman	3	701.0	NA
5	10	19	F	Filler	101	5	was	4	700.0	NA
5	10	19	F	Filler	101	5	insulted	5	800.0	NA
5	10	19	F	Filler	101	5	by	6	599.0	NA
5	10	19	F	Filler	101	5	the	7	634.0	NA
5	10	19	F	Filler	101	5	rude	8	719.0	NA
5	10	19	F	Filler	101	5	stranger	9	781.0	NA
5	10	19	F	Filler	101	5	because	10	1569.0	NA
5	10	19	F	Filler	101	5	he	11	500.0	NA
5	10	19	F	Filler	101	5	didn't	12	733.0	NA
5	10	19	F	Filler	101	5	smile	13	599.0	NA
5	10	19	F	Filler	101	5	at	14	468.0	NA
5	10	19	F	Filler	101	5	her.	15	533.0	NA
5	10	19	F	Question	101	5	NA	NA	1567.0	1
6	10	19	F	Filler	117	6	While	1	427.0	NA
6	10	19	F	Filler	117	6	Mike	2	1435.0	NA
6	10	19	F	Filler	117	6	coughed	3	651.0	NA
6	10	19	F	Filler	117	6	Janet	4	700.0	NA
6	10	19	F	Filler	117	6	went	5	816.0	NA
6	10	19	F	Filler	117	6	out	6	716.0	NA
6	10	19	F	Filler	117	6	to	7	868.0	NA
6	10	19	F	Filler	117	6	get	8	634.0	NA
6	10	19	F	Filler	117	6	some	9	567.0	NA
6	10	19	F	Filler	117	6	cough	10	683.0	NA
6	10	19	F	Filler	117	6	medicine.	11	601.0	NA
6	10	19	F	Question	117	6	NA	NA	1600.0	1
7	10	19	F	Filler	104	5	Despite	1	678.0	NA
7	10	19	F	Filler	104	5	the	2	765.0	NA
7	10	19	F	Filler	104	5	relative	3	751.0	NA
7	10	19	F	Filler	104	5	lack	4	632.0	NA
7	10	19	F	Filler	104	5	of	5	587.0	NA
7	10	19	F	Filler	104	5	rain	6	798.0	NA
7	10	19	F	Filler	104	5	the	7	634.0	NA
7	10	19	F	Filler	104	5	farmer	8	918.0	NA
7	10	19	F	Filler	104	5	harvested	9	667.0	NA
7	10	19	F	Filler	104	5	much	10	716.0	NA
7	10	19	F	Filler	104	5	wheat.	11	667.0	NA
7	10	19	F	Question	104	5	NA	NA	2000.0	1
8	10	19	F	swets	3	3	The	1	646.0	NA
8	10	19	F	swets	3	3	secretary	2	767.0	NA
8	10	19	F	swets	3	3	of	3	584.0	NA
8	10	19	F	swets	3	3	the	4	616.0	NA
8	10	19	F	swets	3	3	salesman	5	1400.0	NA
8	10	19	F	swets	3	3	who	6	666.0	NA
8	10	19	F	swets	3	3	amused	7	802.0	NA
8	10	19	F	swets	3	3	herself	8	1200.0	NA
8	10	19	F	swets	3	3	quite	9	667.0	NA
8	10	19	F	swets	3	3	a	10	534.0	NA
8	10	19	F	swets	3	3	bit	11	733.0	NA
8	10	19	F	swets	3	3	was	12	748.0	NA
8	10	19	F	swets	3	3	writing	13	736.0	NA
8	10	19	F	swets	3	3	a	14	568.0	NA
8	10	19	F	swets	3	3	letter	15	498.0	NA
8	10	19	F	swets	3	3	to	16	451.0	NA
8	10	19	F	swets	3	3	the	17	900.0	NA
8	10	19	F	swets	3	3	editor.	18	534.0	NA
8	10	19	F	Question	3	3	NA	NA	1933.0	1
9	10	19	F	Filler	68	4	The	1	612.0	NA
9	10	19	F	Filler	68	4	scientist	2	1184.0	NA
9	10	19	F	Filler	68	4	published	3	683.0	NA
9	10	19	F	Filler	68	4	a	4	1018.0	NA
9	10	19	F	Filler	68	4	paper	5	848.0	NA
9	10	19	F	Filler	68	4	in	6	884.0	NA
9	10	19	F	Filler	68	4	the	7	901.0	NA
9	10	19	F	Filler	68	4	journal	8	1317.0	NA
9	10	19	F	Filler	68	4	of	9	768.0	NA
9	10	19	F	Filler	68	4	the	10	683.0	NA
9	10	19	F	Filler	68	4	foreign	11	1650.0	NA
9	10	19	F	Filler	68	4	organization.	12	666.0	NA
9	10	19	F	Question	68	4	NA	NA	2301.0	0
10	10	19	F	Filler	78	5	The	1	713.0	NA
10	10	19	F	Filler	78	5	customer	2	950.0	NA
10	10	19	F	Filler	78	5	complimented	3	1466.0	NA
10	10	19	F	Filler	78	5	the	4	751.0	NA
10	10	19	F	Filler	78	5	store	5	783.0	NA
10	10	19	F	Filler	78	5	keeper	6	917.0	NA
10	10	19	F	Filler	78	5	with	7	684.0	NA
10	10	19	F	Filler	78	5	the	8	584.0	NA
10	10	19	F	Filler	78	5	new	9	566.0	NA
10	10	19	F	Filler	78	5	stock.	10	584.0	NA
10	10	19	F	Question	78	5	NA	NA	2199.0	1
11	10	19	F	swets	22	1	The	1	162.0	NA
11	10	19	F	swets	22	1	nephew	2	701.0	NA
11	10	19	F	swets	22	1	of	3	600.0	NA
11	10	19	F	swets	22	1	the	4	482.0	NA
11	10	19	F	swets	22	1	commander	5	800.0	NA
11	10	19	F	swets	22	1	who	6	669.0	NA
11	10	19	F	swets	22	1	calmed	7	699.0	NA
11	10	19	F	swets	22	1	himself	8	617.0	NA
11	10	19	F	swets	22	1	after	9	816.0	NA
11	10	19	F	swets	22	1	the	10	784.0	NA
11	10	19	F	swets	22	1	tragedy	11	683.0	NA
11	10	19	F	swets	22	1	was	12	1167.0	NA
11	10	19	F	swets	22	1	waiting	13	569.0	NA
11	10	19	F	swets	22	1	for	14	733.0	NA
11	10	19	F	swets	22	1	the	15	417.0	NA
11	10	19	F	swets	22	1	doctor.	16	549.0	NA
11	10	19	F	Question	22	1	NA	NA	4267.0	1
12	10	19	F	Filler	84	5	While	1	1795.0	NA
12	10	19	F	Filler	84	5	talking	2	950.0	NA
12	10	19	F	Filler	84	5	to	3	685.0	NA
12	10	19	F	Filler	84	5	his	4	599.0	NA
12	10	19	F	Filler	84	5	sister	5	900.0	NA
12	10	19	F	Filler	84	5	the	6	535.0	NA
12	10	19	F	Filler	84	5	bishop	7	566.0	NA
12	10	19	F	Filler	84	5	with	8	583.0	NA
12	10	19	F	Filler	84	5	the	9	617.0	NA
12	10	19	F	Filler	84	5	funny	10	599.0	NA
12	10	19	F	Filler	84	5	eyebrows	11	552.0	NA
12	10	19	F	Filler	84	5	advocated	12	817.0	NA
12	10	19	F	Filler	84	5	strange	13	935.0	NA
12	10	19	F	Filler	84	5	beliefs.	14	599.0	NA
12	10	19	F	Question	84	5	NA	NA	3768.0	1
13	10	19	F	Filler	91	5	The	1	413.0	NA
13	10	19	F	Filler	91	5	workman	2	782.0	NA
13	10	19	F	Filler	91	5	dropped	3	917.0	NA
13	10	19	F	Filler	91	5	the	4	835.0	NA
13	10	19	F	Filler	91	5	assistant	5	500.0	NA
13	10	19	F	Filler	91	5	who	6	550.0	NA
13	10	19	F	Filler	91	5	complained	7	599.0	NA
13	10	19	F	Filler	91	5	bitterly	8	567.0	NA
13	10	19	F	Filler	91	5	onto	9	466.0	NA
13	10	19	F	Filler	91	5	a	10	484.0	NA
13	10	19	F	Filler	91	5	lower	11	1185.0	NA
13	10	19	F	Filler	91	5	floor.	12	499.0	NA
13	10	19	F	Question	91	5	NA	NA	3868.0	1
14	10	19	F	swets	33	3	The	1	378.0	NA
14	10	19	F	swets	33	3	maid	2	533.0	NA
14	10	19	F	swets	33	3	of	3	500.0	NA
14	10	19	F	swets	33	3	the	4	533.0	NA
14	10	19	F	swets	33	3	actor	5	834.0	NA
14	10	19	F	swets	33	3	who	6	1052.0	NA
14	10	19	F	swets	33	3	did	7	766.0	NA
14	10	19	F	swets	33	3	not	8	598.0	NA
14	10	19	F	swets	33	3	like	9	769.0	NA
14	10	19	F	swets	33	3	herself	10	1649.0	NA
14	10	19	F	swets	33	3	very	11	469.0	NA
14	10	19	F	swets	33	3	much	12	415.0	NA
14	10	19	F	swets	33	3	caught	13	533.0	NA
14	10	19	F	swets	33	3	the	14	634.0	NA
14	10	19	F	swets	33	3	armed	15	500.0	NA
14	10	19	F	swets	33	3	robber.	16	468.0	NA
14	10	19	F	Question	33	3	NA	NA	3133.0	0
15	10	19	F	Filler	111	6	While	1	628.0	NA
15	10	19	F	Filler	111	6	the	2	434.0	NA
15	10	19	F	Filler	111	6	clown	3	634.0	NA
15	10	19	F	Filler	111	6	juggled	4	483.0	NA
15	10	19	F	Filler	111	6	the	5	401.0	NA
15	10	19	F	Filler	111	6	balls	6	649.0	NA
15	10	19	F	Filler	111	6	fell	7	451.0	NA
15	10	19	F	Filler	111	6	to	8	433.0	NA
15	10	19	F	Filler	111	6	the	9	318.0	NA
15	10	19	F	Filler	111	6	ground.	10	465.0	NA
15	10	19	F	Question	111	6	NA	NA	2768.0	1
16	10	19	F	Filler	80	5	The	1	362.0	NA
16	10	19	F	Filler	80	5	stepfather	2	517.0	NA
16	10	19	F	Filler	80	5	of	3	616.0	NA
16	10	19	F	Filler	80	5	the	4	551.0	NA
16	10	19	F	Filler	80	5	nun	5	533.0	NA
16	10	19	F	Filler	80	5	with	6	467.0	NA
16	10	19	F	Filler	80	5	a	7	517.0	NA
16	10	19	F	Filler	80	5	long	8	651.0	NA
16	10	19	F	Filler	80	5	white	9	1499.0	NA
16	10	19	F	Filler	80	5	beard	10	1484.0	NA
16	10	19	F	Filler	80	5	became	11	566.0	NA
16	10	19	F	Filler	80	5	very	12	468.0	NA
16	10	19	F	Filler	80	5	ill.	13	483.0	NA
16	10	19	F	Question	80	5	NA	NA	3451.0	1
17	10	19	F	swets	6	3	The	1	495.0	NA
17	10	19	F	swets	6	3	hostess	2	649.0	NA
17	10	19	F	swets	6	3	of	3	452.0	NA
17	10	19	F	swets	6	3	the	4	416.0	NA
17	10	19	F	swets	6	3	mayor	5	467.0	NA
17	10	19	F	swets	6	3	who	6	1051.0	NA
17	10	19	F	swets	6	3	complimented	7	865.0	NA
17	10	19	F	swets	6	3	herself	8	551.0	NA
17	10	19	F	swets	6	3	constantly	9	483.0	NA
17	10	19	F	swets	6	3	was	10	517.0	NA
17	10	19	F	swets	6	3	bothered	11	518.0	NA
17	10	19	F	swets	6	3	by	12	1383.0	NA
17	10	19	F	swets	6	3	the	13	568.0	NA
17	10	19	F	swets	6	3	reporter.	14	615.0	NA
17	10	19	F	Question	6	3	NA	NA	1667.0	1
18	10	19	F	Filler	69	4	The	1	361.0	NA
18	10	19	F	Filler	69	4	tiny	2	467.0	NA
18	10	19	F	Filler	69	4	child	3	450.0	NA
18	10	19	F	Filler	69	4	rolled	4	567.0	NA
18	10	19	F	Filler	69	4	the	5	484.0	NA
18	10	19	F	Filler	69	4	piece	6	617.0	NA
18	10	19	F	Filler	69	4	of	7	499.0	NA
18	10	19	F	Filler	69	4	the	8	517.0	NA
18	10	19	F	Filler	69	4	toy	9	767.0	NA
18	10	19	F	Filler	69	4	into	10	434.0	NA
18	10	19	F	Filler	69	4	the	11	516.0	NA
18	10	19	F	Filler	69	4	next	12	434.0	NA
18	10	19	F	Filler	69	4	room	13	416.0	NA
18	10	19	F	Filler	69	4	after	14	452.0	NA
18	10	19	F	Filler	69	4	it	15	433.0	NA
18	10	19	F	Filler	69	4	broke	16	499.0	NA
18	10	19	F	Filler	69	4	off.	17	534.0	NA
18	10	19	F	Question	69	4	NA	NA	1800.0	1
19	10	19	F	Filler	43	4	The	1	328.0	NA
19	10	19	F	Filler	43	4	movie	2	433.0	NA
19	10	19	F	Filler	43	4	director	3	433.0	NA
19	10	19	F	Filler	43	4	refused	4	633.0	NA
19	10	19	F	Filler	43	4	to	5	451.0	NA
19	10	19	F	Filler	43	4	work	6	434.0	NA
19	10	19	F	Filler	43	4	with	7	549.0	NA
19	10	19	F	Filler	43	4	the	8	534.0	NA
19	10	19	F	Filler	43	4	producer	9	500.0	NA
19	10	19	F	Filler	43	4	again	10	501.0	NA
19	10	19	F	Filler	43	4	after	11	467.0	NA
19	10	19	F	Filler	43	4	winning	12	432.0	NA
19	10	19	F	Filler	43	4	the	13	418.0	NA
19	10	19	F	Filler	43	4	grand	14	433.0	NA
19	10	19	F	Filler	43	4	prize.	15	467.0	NA
19	10	19	F	Question	43	4	NA	NA	3301.0	1
20	10	19	F	Filler	121	6	The	1	346.0	NA
20	10	19	F	Filler	121	6	ecologist	2	749.0	NA
20	10	19	F	Filler	121	6	wondered	3	734.0	NA
20	10	19	F	Filler	121	6	which	4	717.0	NA
20	10	19	F	Filler	121	6	plants	5	851.0	NA
20	10	19	F	Filler	121	6	the	6	666.0	NA
20	10	19	F	Filler	121	6	scientist	7	634.0	NA
20	10	19	F	Filler	121	6	grew	8	783.0	NA
20	10	19	F	Filler	121	6	but	9	568.0	NA
20	10	19	F	Filler	121	6	didn't	10	501.0	NA
20	10	19	F	Filler	121	6	modify	11	916.0	NA
20	10	19	F	Filler	121	6	the	12	481.0	NA
20	10	19	F	Filler	121	6	seeds	13	453.0	NA
20	10	19	F	Filler	121	6	of	14	499.0	NA
20	10	19	F	Filler	121	6	in	15	552.0	NA
20	10	19	F	Filler	121	6	the	16	434.0	NA
20	10	19	F	Filler	121	6	lab.	17	466.0	NA
20	10	19	F	Question	121	6	NA	NA	3668.0	1
21	10	19	F	Filler	79	5	Although	1	1429.0	NA
21	10	19	F	Filler	79	5	the	2	484.0	NA
21	10	19	F	Filler	79	5	mechanic	3	666.0	NA
21	10	19	F	Filler	79	5	said	4	518.0	NA
21	10	19	F	Filler	79	5	the	5	649.0	NA
21	10	19	F	Filler	79	5	job	6	450.0	NA
21	10	19	F	Filler	79	5	would	7	450.0	NA
21	10	19	F	Filler	79	5	take	8	416.0	NA
21	10	19	F	Filler	79	5	four	9	534.0	NA
21	10	19	F	Filler	79	5	days	10	1451.0	NA
21	10	19	F	Filler	79	5	the	11	1185.0	NA
21	10	19	F	Filler	79	5	client	12	1331.0	NA
21	10	19	F	Filler	79	5	didn't	13	768.0	NA
21	10	19	F	Filler	79	5	receive	14	1100.0	NA
21	10	19	F	Filler	79	5	her	15	583.0	NA
21	10	19	F	Filler	79	5	car	16	650.0	NA
21	10	19	F	Filler	79	5	for	17	667.0	NA
21	10	19	F	Filler	79	5	six	18	834.0	NA
21	10	19	F	Filler	79	5	weeks.	19	532.0	NA
21	10	19	F	Question	79	5	NA	NA	1551.0	1
22	10	19	F	Filler	59	4	The	1	579.0	NA
22	10	19	F	Filler	59	4	conductor	2	699.0	NA
22	10	19	F	Filler	59	4	of	3	766.0	NA
22	10	19	F	Filler	59	4	the	4	669.0	NA
22	10	19	F	Filler	59	4	orchestra	5	816.0	NA
22	10	19	F	Filler	59	4	with	6	751.0	NA
22	10	19	F	Filler	59	4	the	7	583.0	NA
22	10	19	F	Filler	59	4	bald	8	699.0	NA
22	10	19	F	Filler	59	4	head	9	1134.0	NA
22	10	19	F	Filler	59	4	plays	10	1117.0	NA
22	10	19	F	Filler	59	4	excellently.	11	602.0	NA
22	10	19	F	Question	59	4	NA	NA	1199.0	1
23	10	19	F	Filler	114	6	While	1	829.0	NA
23	10	19	F	Filler	114	6	the	2	433.0	NA
23	10	19	F	Filler	114	6	winners	3	383.0	NA
23	10	19	F	Filler	114	6	were	4	418.0	NA
23	10	19	F	Filler	114	6	kissing	5	433.0	NA
23	10	19	F	Filler	114	6	the	6	400.0	NA
23	10	19	F	Filler	114	6	crowd	7	484.0	NA
23	10	19	F	Filler	114	6	cheered	8	399.0	NA
23	10	19	F	Filler	114	6	wildly.	9	717.0	NA
23	10	19	F	Question	114	6	NA	NA	1067.0	1
24	10	19	F	swets	9	3	The	1	512.0	NA
24	10	19	F	swets	9	3	father	2	801.0	NA
24	10	19	F	swets	9	3	of	3	633.0	NA
24	10	19	F	swets	9	3	the	4	484.0	NA
24	10	19	F	swets	9	3	schoolgirl	5	1582.0	NA
24	10	19	F	swets	9	3	who	6	3852.0	NA
24	10	19	F	swets	9	3	burned	7	400.0	NA
24	10	19	F	swets	9	3	himself	8	417.0	NA
24	10	19	F	swets	9	3	the	9	466.0	NA
24	10	19	F	swets	9	3	other	10	885.0	NA
24	10	19	F	swets	9	3	day	11	366.0	NA
24	10	19	F	swets	9	3	was	12	401.0	NA
24	10	19	F	swets	9	3	usually	13	400.0	NA
24	10	19	F	swets	9	3	very	14	367.0	NA
24	10	19	F	swets	9	3	careful.	15	333.0	NA
24	10	19	F	Question	9	3	NA	NA	1200.0	1
25	10	19	F	Filler	57	4	The	1	345.0	NA
25	10	19	F	Filler	57	4	architect	2	600.0	NA
25	10	19	F	Filler	57	4	was	3	449.0	NA
25	10	19	F	Filler	57	4	embarrassed	4	569.0	NA
25	10	19	F	Filler	57	4	by	5	400.0	NA
25	10	19	F	Filler	57	4	the	6	401.0	NA
25	10	19	F	Filler	57	4	memo	7	399.0	NA
25	10	19	F	Filler	57	4	of	8	399.0	NA
25	10	19	F	Filler	57	4	the	9	366.0	NA
25	10	19	F	Filler	57	4	engineer	10	418.0	NA
25	10	19	F	Filler	57	4	because	11	433.0	NA
25	10	19	F	Filler	57	4	it	12	451.0	NA
25	10	19	F	Filler	57	4	said	13	418.0	NA
25	10	19	F	Filler	57	4	that	14	399.0	NA
25	10	19	F	Filler	57	4	his	15	401.0	NA
25	10	19	F	Filler	57	4	building	16	465.0	NA
25	10	19	F	Filler	57	4	would	17	584.0	NA
25	10	19	F	Filler	57	4	collapse.	18	416.0	NA
25	10	19	F	Question	57	4	NA	NA	1101.0	1
26	10	19	F	swets	20	2	The	1	379.0	NA
26	10	19	F	swets	20	2	sister	2	449.0	NA
26	10	19	F	swets	20	2	of	3	401.0	NA
26	10	19	F	swets	20	2	the	4	416.0	NA
26	10	19	F	swets	20	2	count	5	500.0	NA
26	10	19	F	swets	20	2	who	6	467.0	NA
26	10	19	F	swets	20	2	crippled	7	500.0	NA
26	10	19	F	swets	20	2	himself	8	533.0	NA
26	10	19	F	swets	20	2	by	9	852.0	NA
26	10	19	F	swets	20	2	falling	10	485.0	NA
26	10	19	F	swets	20	2	off	11	497.0	NA
26	10	19	F	swets	20	2	a	12	500.0	NA
26	10	19	F	swets	20	2	horse	13	483.0	NA
26	10	19	F	swets	20	2	took	14	452.0	NA
26	10	19	F	swets	20	2	a	15	549.0	NA
26	10	19	F	swets	20	2	long	16	484.0	NA
26	10	19	F	swets	20	2	time	17	451.0	NA
26	10	19	F	swets	20	2	to	18	415.0	NA
26	10	19	F	swets	20	2	get	19	384.0	NA
26	10	19	F	swets	20	2	over	20	433.0	NA
26	10	19	F	swets	20	2	it.	21	383.0	NA
26	10	19	F	Question	20	2	NA	NA	1400.0	1
27	10	19	F	Filler	90	5	The	1	13.0	NA
27	10	19	F	Filler	90	5	artist	2	717.0	NA
27	10	19	F	Filler	90	5	was	3	365.0	NA
27	10	19	F	Filler	90	5	not	4	383.0	NA
27	10	19	F	Filler	90	5	satisfied	5	435.0	NA
27	10	19	F	Filler	90	5	with	6	349.0	NA
27	10	19	F	Filler	90	5	his	7	367.0	NA
27	10	19	F	Filler	90	5	painting	8	383.0	NA
27	10	19	F	Filler	90	5	because	9	402.0	NA
27	10	19	F	Filler	90	5	the	10	350.0	NA
27	10	19	F	Filler	90	5	shading	11	367.0	NA
27	10	19	F	Filler	90	5	was	12	416.0	NA
27	10	19	F	Filler	90	5	off.	13	383.0	NA
27	10	19	F	Question	90	5	NA	NA	2401.0	1
28	10	19	F	Filler	74	5	My	1	395.0	NA
28	10	19	F	Filler	74	5	former	2	533.0	NA
28	10	19	F	Filler	74	5	girlfriend	3	467.0	NA
28	10	19	F	Filler	74	5	criticized	4	633.0	NA
28	10	19	F	Filler	74	5	the	5	435.0	NA
28	10	19	F	Filler	74	5	author's	6	466.0	NA
28	10	19	F	Filler	74	5	agent	7	482.0	NA
28	10	19	F	Filler	74	5	because	8	470.0	NA
28	10	19	F	Filler	74	5	he	9	1149.0	NA
28	10	19	F	Filler	74	5	had	10	1016.0	NA
28	10	19	F	Filler	74	5	failed	11	402.0	NA
28	10	19	F	Filler	74	5	to	12	316.0	NA
28	10	19	F	Filler	74	5	meet	13	316.0	NA
28	10	19	F	Filler	74	5	a	14	332.0	NA
28	10	19	F	Filler	74	5	deadline.	15	434.0	NA
28	10	19	F	Question	74	5	NA	NA	1667.0	1
29	10	19	F	Filler	46	4	The	1	361.0	NA
29	10	19	F	Filler	46	4	preacher	2	466.0	NA
29	10	19	F	Filler	46	4	of	3	502.0	NA
29	10	19	F	Filler	46	4	the	4	516.0	NA
29	10	19	F	Filler	46	4	congregation	5	766.0	NA
29	10	19	F	Filler	46	4	had	6	1334.0	NA
29	10	19	F	Filler	46	4	given	7	467.0	NA
29	10	19	F	Filler	46	4	a	8	384.0	NA
29	10	19	F	Filler	46	4	sermon	9	449.0	NA
29	10	19	F	Filler	46	4	at	10	501.0	NA
29	10	19	F	Filler	46	4	a	11	484.0	NA
29	10	19	F	Filler	46	4	local	12	449.0	NA
29	10	19	F	Filler	46	4	school.	13	402.0	NA
29	10	19	F	Question	46	4	NA	NA	6483.0	1
30	10	19	F	swets	14	2	The	1	363.0	NA
30	10	19	F	swets	14	2	father	2	417.0	NA
30	10	19	F	swets	14	2	of	3	383.0	NA
30	10	19	F	swets	14	2	the	4	367.0	NA
30	10	19	F	swets	14	2	nurse	5	400.0	NA
30	10	19	F	swets	14	2	who	6	383.0	NA
30	10	19	F	swets	14	2	injured	7	433.0	NA
30	10	19	F	swets	14	2	herself	8	1083.0	NA
30	10	19	F	swets	14	2	last	9	467.0	NA
30	10	19	F	swets	14	2	summer	10	534.0	NA
30	10	19	F	swets	14	2	had	11	451.0	NA
30	10	19	F	swets	14	2	lived	12	583.0	NA
30	10	19	F	swets	14	2	in	13	466.0	NA
30	10	19	F	swets	14	2	Wales.	14	435.0	NA
30	10	19	F	Question	14	2	NA	NA	1383.0	1
31	10	19	F	Filler	136	7	While	1	429.0	NA
31	10	19	F	Filler	136	7	Mark	2	467.0	NA
31	10	19	F	Filler	136	7	and	3	432.0	NA
31	10	19	F	Filler	136	7	Jenny	4	434.0	NA
31	10	19	F	Filler	136	7	were	5	733.0	NA
31	10	19	F	Filler	136	7	cuddling	6	634.0	NA
31	10	19	F	Filler	136	7	the	7	584.0	NA
31	10	19	F	Filler	136	7	older	8	566.0	NA
31	10	19	F	Filler	136	7	dogs	9	917.0	NA
31	10	19	F	Filler	136	7	the	10	501.0	NA
31	10	19	F	Filler	136	7	puppies	11	900.0	NA
31	10	19	F	Filler	136	7	nipped	12	1483.0	NA
31	10	19	F	Filler	136	7	at	13	418.0	NA
31	10	19	F	Filler	136	7	their	14	649.0	NA
31	10	19	F	Filler	136	7	feet.	15	1617.0	NA
31	10	19	F	Question	136	7	NA	NA	5002.0	1
32	10	19	F	Filler	42	4	After	1	462.0	NA
32	10	19	F	Filler	42	4	dinner	2	685.0	NA
32	10	19	F	Filler	42	4	the	3	416.0	NA
32	10	19	F	Filler	42	4	children	4	366.0	NA
32	10	19	F	Filler	42	4	gathered	5	450.0	NA
32	10	19	F	Filler	42	4	in	6	351.0	NA
32	10	19	F	Filler	42	4	a	7	449.0	NA
32	10	19	F	Filler	42	4	circle	8	418.0	NA
32	10	19	F	Filler	42	4	to	9	399.0	NA
32	10	19	F	Filler	42	4	listen	10	384.0	NA
32	10	19	F	Filler	42	4	to	11	351.0	NA
32	10	19	F	Filler	42	4	their	12	333.0	NA
32	10	19	F	Filler	42	4	grandmother's	13	399.0	NA
32	10	19	F	Filler	42	4	stories	14	417.0	NA
32	10	19	F	Filler	42	4	about	15	401.0	NA
32	10	19	F	Filler	42	4	the	16	366.0	NA
32	10	19	F	Filler	42	4	good	17	384.0	NA
32	10	19	F	Filler	42	4	old	18	366.0	NA
32	10	19	F	Filler	42	4	days.	19	334.0	NA
32	10	19	F	Question	42	4	NA	NA	2167.0	1
33	10	19	F	swets	27	3	The	1	329.0	NA
33	10	19	F	swets	27	3	sister	2	416.0	NA
33	10	19	F	swets	27	3	of	3	383.0	NA
33	10	19	F	swets	27	3	the	4	366.0	NA
33	10	19	F	swets	27	3	butcher	5	569.0	NA
33	10	19	F	swets	27	3	who	6	500.0	NA
33	10	19	F	swets	27	3	invited	7	1149.0	NA
33	10	19	F	swets	27	3	herself	8	818.0	NA
33	10	19	F	swets	27	3	to	9	367.0	NA
33	10	19	F	swets	27	3	the	10	365.0	NA
33	10	19	F	swets	27	3	party	11	351.0	NA
33	10	19	F	swets	27	3	enjoyed	12	433.0	NA
33	10	19	F	swets	27	3	it	13	352.0	NA
33	10	19	F	swets	27	3	quite	14	367.0	NA
33	10	19	F	swets	27	3	a	15	382.0	NA
33	10	19	F	swets	27	3	bit.	16	433.0	NA
33	10	19	F	Question	27	3	NA	NA	1167.0	1
34	10	19	F	Filler	60	4	The	1	328.0	NA
34	10	19	F	Filler	60	4	newlyweds	2	1116.0	NA
34	10	19	F	Filler	60	4	were	3	451.0	NA
34	10	19	F	Filler	60	4	nervous	4	399.0	NA
34	10	19	F	Filler	60	4	about	5	435.0	NA
34	10	19	F	Filler	60	4	their	6	416.0	NA
34	10	19	F	Filler	60	4	new	7	334.0	NA
34	10	19	F	Filler	60	4	life	8	450.0	NA
34	10	19	F	Filler	60	4	together.	9	666.0	NA
34	10	19	F	Question	60	4	NA	NA	1534.0	1
35	10	19	F	Filler	41	4	While	1	428.0	NA
35	10	19	F	Filler	41	4	the	2	751.0	NA
35	10	19	F	Filler	41	4	babysitter	3	601.0	NA
35	10	19	F	Filler	41	4	watched	4	482.0	NA
35	10	19	F	Filler	41	4	soap	5	518.0	NA
35	10	19	F	Filler	41	4	operas	6	768.0	NA
35	10	19	F	Filler	41	4	the	7	466.0	NA
35	10	19	F	Filler	41	4	child	8	417.0	NA
35	10	19	F	Filler	41	4	poured	9	665.0	NA
35	10	19	F	Filler	41	4	honey	10	435.0	NA
35	10	19	F	Filler	41	4	all	11	432.0	NA
35	10	19	F	Filler	41	4	over	12	401.0	NA
35	10	19	F	Filler	41	4	the	13	467.0	NA
35	10	19	F	Filler	41	4	floor.	14	467.0	NA
35	10	19	F	Question	41	4	NA	NA	1099.0	1
36	10	19	F	swets	7	1	The	1	311.0	NA
36	10	19	F	swets	7	1	niece	2	584.0	NA
36	10	19	F	swets	7	1	of	3	434.0	NA
36	10	19	F	swets	7	1	the	4	449.0	NA
36	10	19	F	swets	7	1	waitress	5	1068.0	NA
36	10	19	F	swets	7	1	who	6	450.0	NA
36	10	19	F	swets	7	1	hurt	7	734.0	NA
36	10	19	F	swets	7	1	herself	8	4567.0	NA
36	10	19	F	swets	7	1	on	9	349.0	NA
36	10	19	F	swets	7	1	the	10	286.0	NA
36	10	19	F	swets	7	1	bicycle	11	466.0	NA
36	10	19	F	swets	7	1	was	12	400.0	NA
36	10	19	F	swets	7	1	angry	13	718.0	NA
36	10	19	F	swets	7	1	about	14	366.0	NA
36	10	19	F	swets	7	1	the	15	367.0	NA
36	10	19	F	swets	7	1	incident.	16	332.0	NA
36	10	19	F	Question	7	1	NA	NA	1201.0	1
37	10	19	F	Filler	82	5	The	1	446.0	NA
37	10	19	F	Filler	82	5	patient's	2	599.0	NA
37	10	19	F	Filler	82	5	seizures	3	634.0	NA
37	10	19	F	Filler	82	5	appeared	4	433.0	NA
37	10	19	F	Filler	82	5	to	5	417.0	NA
37	10	19	F	Filler	82	5	have	6	333.0	NA
37	10	19	F	Filler	82	5	been	7	333.0	NA
37	10	19	F	Filler	82	5	eliminated	8	402.0	NA
37	10	19	F	Filler	82	5	by	9	398.0	NA
37	10	19	F	Filler	82	5	the	10	319.0	NA
37	10	19	F	Filler	82	5	surgery.	11	399.0	NA
37	10	19	F	Question	82	5	NA	NA	1299.0	1
38	10	19	F	swets	19	1	The	1	380.0	NA
38	10	19	F	swets	19	1	neighbor	2	465.0	NA
38	10	19	F	swets	19	1	of	3	416.0	NA
38	10	19	F	swets	19	1	the	4	352.0	NA
38	10	19	F	swets	19	1	actor	5	467.0	NA
38	10	19	F	swets	19	1	who	6	383.0	NA
38	10	19	F	swets	19	1	hated	7	634.0	NA
38	10	19	F	swets	19	1	himself	8	666.0	NA
38	10	19	F	swets	19	1	for	9	551.0	NA
38	10	19	F	swets	19	1	lying	10	449.0	NA
38	10	19	F	swets	19	1	left	11	417.0	NA
38	10	19	F	swets	19	1	town	12	416.0	NA
38	10	19	F	swets	19	1	in	13	2252.0	NA
38	10	19	F	swets	19	1	a	14	416.0	NA
38	10	19	F	swets	19	1	hurry.	15	399.0	NA
38	10	19	F	Question	19	1	NA	NA	4618.0	1
39	10	19	F	Filler	56	4	The	1	144.0	NA
39	10	19	F	Filler	56	4	actor	2	533.0	NA
39	10	19	F	Filler	56	4	said	3	334.0	NA
39	10	19	F	Filler	56	4	the	4	334.0	NA
39	10	19	F	Filler	56	4	audiences	5	566.0	NA
39	10	19	F	Filler	56	4	believed	6	500.0	NA
39	10	19	F	Filler	56	4	the	7	401.0	NA
39	10	19	F	Filler	56	4	nasty	8	399.0	NA
39	10	19	F	Filler	56	4	remarks	9	868.0	NA
39	10	19	F	Filler	56	4	made	10	483.0	NA
39	10	19	F	Filler	56	4	by	11	402.0	NA
39	10	19	F	Filler	56	4	the	12	366.0	NA
39	10	19	F	Filler	56	4	film	13	549.0	NA
39	10	19	F	Filler	56	4	critic.	14	634.0	NA
39	10	19	F	Question	56	4	NA	NA	4767.0	0
40	10	19	F	Filler	92	5	The	1	459.0	NA
40	10	19	F	Filler	92	5	personal	2	934.0	NA
40	10	19	F	Filler	92	5	trainer	3	601.0	NA
40	10	19	F	Filler	92	5	was	4	484.0	NA
40	10	19	F	Filler	92	5	popular	5	531.0	NA
40	10	19	F	Filler	92	5	among	6	400.0	NA
40	10	19	F	Filler	92	5	athletes	7	469.0	NA
40	10	19	F	Filler	92	5	after	8	601.0	NA
40	10	19	F	Filler	92	5	he	9	433.0	NA
40	10	19	F	Filler	92	5	helped	10	700.0	NA
40	10	19	F	Filler	92	5	the	11	583.0	NA
40	10	19	F	Filler	92	5	bodybuilder	12	865.0	NA
40	10	19	F	Filler	92	5	win	13	568.0	NA
40	10	19	F	Filler	92	5	the	14	484.0	NA
40	10	19	F	Filler	92	5	competition.	15	500.0	NA
40	10	19	F	Question	92	5	NA	NA	1916.0	1
41	10	19	F	swets	17	2	The	1	161.0	NA
41	10	19	F	swets	17	2	bank	2	700.0	NA
41	10	19	F	swets	17	2	manager	3	383.0	NA
41	10	19	F	swets	17	2	of	4	416.0	NA
41	10	19	F	swets	17	2	the	5	935.0	NA
41	10	19	F	swets	17	2	heiress	6	2701.0	NA
41	10	19	F	swets	17	2	who	7	383.0	NA
41	10	19	F	swets	17	2	bankrupted	8	566.0	NA
41	10	19	F	swets	17	2	herself	9	401.0	NA
41	10	19	F	swets	17	2	last	10	416.0	NA
41	10	19	F	swets	17	2	year	11	368.0	NA
41	10	19	F	swets	17	2	still	12	367.0	NA
41	10	19	F	swets	17	2	made	13	399.0	NA
41	10	19	F	swets	17	2	risky	14	367.0	NA
41	10	19	F	swets	17	2	investments.	15	434.0	NA
41	10	19	F	Question	17	2	NA	NA	2066.0	1
42	10	19	F	Filler	52	4	The	1	329.0	NA
42	10	19	F	Filler	52	4	students	2	1100.0	NA
42	10	19	F	Filler	52	4	were	3	533.0	NA
42	10	19	F	Filler	52	4	bored	4	566.0	NA
42	10	19	F	Filler	52	4	by	5	368.0	NA
42	10	19	F	Filler	52	4	the	6	701.0	NA
42	10	19	F	Filler	52	4	teacher.	7	499.0	NA
42	10	19	F	Question	52	4	NA	NA	1118.0	1
43	10	19	F	Filler	107	5	The	1	327.0	NA
43	10	19	F	Filler	107	5	citizens	2	501.0	NA
43	10	19	F	Filler	107	5	were	3	367.0	NA
43	10	19	F	Filler	107	5	dissatisfied	4	634.0	NA
43	10	19	F	Filler	107	5	with	5	467.0	NA
43	10	19	F	Filler	107	5	the	6	449.0	NA
43	10	19	F	Filler	107	5	mayor	7	384.0	NA
43	10	19	F	Filler	107	5	of	8	350.0	NA
43	10	19	F	Filler	107	5	town	9	300.0	NA
43	10	19	F	Filler	107	5	because	10	434.0	NA
43	10	19	F	Filler	107	5	he	11	416.0	NA
43	10	19	F	Filler	107	5	had	12	367.0	NA
43	10	19	F	Filler	107	5	little	13	351.0	NA
43	10	19	F	Filler	107	5	experience.	14	466.0	NA
43	10	19	F	Question	107	5	NA	NA	1083.0	1
44	10	19	F	Filler	129	7	While	1	362.0	NA
44	10	19	F	Filler	129	7	Scott	2	568.0	NA
44	10	19	F	Filler	129	7	vacuumed	3	1132.0	NA
44	10	19	F	Filler	129	7	the	4	418.0	NA
44	10	19	F	Filler	129	7	carpet	5	632.0	NA
44	10	19	F	Filler	129	7	the	6	351.0	NA
44	10	19	F	Filler	129	7	drapes	7	901.0	NA
44	10	19	F	Filler	129	7	flapped	8	465.0	NA
44	10	19	F	Filler	129	7	in	9	419.0	NA
44	10	19	F	Filler	129	7	the	10	299.0	NA
44	10	19	F	Filler	129	7	breeze.	11	400.0	NA
44	10	19	F	Question	129	7	NA	NA	2466.0	1
45	10	19	F	Filler	139	7	Laurie	1	478.0	NA
45	10	19	F	Filler	139	7	asked	2	402.0	NA
45	10	19	F	Filler	139	7	which	3	334.0	NA
45	10	19	F	Filler	139	7	truck	4	333.0	NA
45	10	19	F	Filler	139	7	the	5	333.0	NA
45	10	19	F	Filler	139	7	dealership	6	366.0	NA
45	10	19	F	Filler	139	7	sold	7	350.0	NA
45	10	19	F	Filler	139	7	but	8	400.0	NA
45	10	19	F	Filler	139	7	didn't	9	434.0	NA
45	10	19	F	Filler	139	7	paint	10	434.0	NA
45	10	19	F	Filler	139	7	completely.	11	2100.0	NA
45	10	19	F	Question	139	7	NA	NA	2699.0	1
46	10	19	F	swets	16	1	The	1	478.0	NA
46	10	19	F	swets	16	1	uncle	2	500.0	NA
46	10	19	F	swets	16	1	of	3	434.0	NA
46	10	19	F	swets	16	1	the	4	350.0	NA
46	10	19	F	swets	16	1	general	5	566.0	NA
46	10	19	F	swets	16	1	who	6	451.0	NA
46	10	19	F	swets	16	1	sacrificed	7	434.0	NA
46	10	19	F	swets	16	1	himself	8	400.0	NA
46	10	19	F	swets	16	1	for	9	483.0	NA
46	10	19	F	swets	16	1	the	10	450.0	NA
46	10	19	F	swets	16	1	cause	11	2100.0	NA
46	10	19	F	swets	16	1	was	12	367.0	NA
46	10	19	F	swets	16	1	the	13	350.0	NA
46	10	19	F	swets	16	1	subject	14	332.0	NA
46	10	19	F	swets	16	1	of	15	303.0	NA
46	10	19	F	swets	16	1	the	16	299.0	NA
46	10	19	F	swets	16	1	biography.	17	399.0	NA
46	10	19	F	Question	16	1	NA	NA	1217.0	1
47	10	19	F	Filler	140	7	The	1	745.0	NA
47	10	19	F	Filler	140	7	investigators	2	2868.0	NA
47	10	19	F	Filler	140	7	asked	3	532.0	NA
47	10	19	F	Filler	140	7	which	4	935.0	NA
47	10	19	F	Filler	140	7	mansion	5	601.0	NA
47	10	19	F	Filler	140	7	the	6	283.0	NA
47	10	19	F	Filler	140	7	owner	7	267.0	NA
47	10	19	F	Filler	140	7	sold	8	550.0	NA
47	10	19	F	Filler	140	7	and	9	367.0	NA
47	10	19	F	Filler	140	7	didn't	10	400.0	NA
47	10	19	F	Filler	140	7	repair	11	416.0	NA
47	10	19	F	Filler	140	7	ten	12	466.0	NA
47	10	19	F	Filler	140	7	years	13	401.0	NA
47	10	19	F	Filler	140	7	ago.	14	434.0	NA
47	10	19	F	Question	140	7	NA	NA	1400.0	1
48	10	19	F	Filler	128	7	While	1	394.0	NA
48	10	19	F	Filler	128	7	the	2	384.0	NA
48	10	19	F	Filler	128	7	man	3	367.0	NA
48	10	19	F	Filler	128	7	was	4	399.0	NA
48	10	19	F	Filler	128	7	walking	5	400.0	NA
48	10	19	F	Filler	128	7	the	6	335.0	NA
48	10	19	F	Filler	128	7	poodle	7	835.0	NA
48	10	19	F	Filler	128	7	barked	8	1065.0	NA
48	10	19	F	Filler	128	7	loudly.	9	466.0	NA
48	10	19	F	Question	128	7	NA	NA	1300.0	0
49	10	19	F	Filler	55	4	The	1	1096.0	NA
49	10	19	F	Filler	55	4	people	2	399.0	NA
49	10	19	F	Filler	55	4	certainly	3	734.0	NA
49	10	19	F	Filler	55	4	admired	4	799.0	NA
49	10	19	F	Filler	55	4	the	5	901.0	NA
49	10	19	F	Filler	55	4	wife	6	500.0	NA
49	10	19	F	Filler	55	4	of	7	400.0	NA
49	10	19	F	Filler	55	4	the	8	350.0	NA
49	10	19	F	Filler	55	4	janitor	9	434.0	NA
49	10	19	F	Filler	55	4	because	10	499.0	NA
49	10	19	F	Filler	55	4	she	11	300.0	NA
49	10	19	F	Filler	55	4	educated	12	401.0	NA
49	10	19	F	Filler	55	4	herself	13	801.0	NA
49	10	19	F	Filler	55	4	at	14	382.0	NA
49	10	19	F	Filler	55	4	night.	15	601.0	NA
49	10	19	F	Question	55	4	NA	NA	1567.0	1
50	10	19	F	swets	35	2	The	1	395.0	NA
50	10	19	F	swets	35	2	landlady	2	901.0	NA
50	10	19	F	swets	35	2	of	3	482.0	NA
50	10	19	F	swets	35	2	the	4	417.0	NA
50	10	19	F	swets	35	2	businessman	5	934.0	NA
50	10	19	F	swets	35	2	who	6	634.0	NA
50	10	19	F	swets	35	2	had	7	565.0	NA
50	10	19	F	swets	35	2	locked	8	602.0	NA
50	10	19	F	swets	35	2	himself	9	633.0	NA
50	10	19	F	swets	35	2	in	10	518.0	NA
50	10	19	F	swets	35	2	the	11	433.0	NA
50	10	19	F	swets	35	2	office	12	1699.0	NA
50	10	19	F	swets	35	2	received	13	1268.0	NA
50	10	19	F	swets	35	2	a	14	368.0	NA
50	10	19	F	swets	35	2	phone	15	332.0	NA
50	10	19	F	swets	35	2	call.	16	417.0	NA
50	10	19	F	Question	35	2	NA	NA	1483.0	1
51	10	19	F	Filler	67	4	The	1	329.0	NA
51	10	19	F	Filler	67	4	restaurant	2	633.0	NA
51	10	19	F	Filler	67	4	was	3	467.0	NA
51	10	19	F	Filler	67	4	famous	4	467.0	NA
51	10	19	F	Filler	67	4	for	5	434.0	NA
51	10	19	F	Filler	67	4	its	6	434.0	NA
51	10	19	F	Filler	67	4	French	7	467.0	NA
51	10	19	F	Filler	67	4	pastries	8	431.0	NA
51	10	19	F	Filler	67	4	and	9	401.0	NA
51	10	19	F	Filler	67	4	fine	10	366.0	NA
51	10	19	F	Filler	67	4	wines.	11	402.0	NA
51	10	19	F	Question	67	4	NA	NA	1400.0	1
52	10	19	F	Filler	93	5	The	1	346.0	NA
52	10	19	F	Filler	93	5	new	2	567.0	NA
52	10	19	F	Filler	93	5	book	3	466.0	NA
52	10	19	F	Filler	93	5	replaced	4	469.0	NA
52	10	19	F	Filler	93	5	the	5	431.0	NA
52	10	19	F	Filler	93	5	work	6	435.0	NA
52	10	19	F	Filler	93	5	of	7	466.0	NA
52	10	19	F	Filler	93	5	the	8	433.0	NA
52	10	19	F	Filler	93	5	leaders	9	601.0	NA
52	10	19	F	Filler	93	5	in	10	800.0	NA
52	10	19	F	Filler	93	5	the	11	466.0	NA
52	10	19	F	Filler	93	5	field	12	535.0	NA
52	10	19	F	Filler	93	5	of	13	467.0	NA
52	10	19	F	Filler	93	5	physical	14	467.0	NA
52	10	19	F	Filler	93	5	chemistry.	15	399.0	NA
52	10	19	F	Question	93	5	NA	NA	2533.0	0
53	10	19	F	Filler	39	4	The	1	328.0	NA
53	10	19	F	Filler	39	4	overweight	2	499.0	NA
53	10	19	F	Filler	39	4	aunt	3	401.0	NA
53	10	19	F	Filler	39	4	decided	4	400.0	NA
53	10	19	F	Filler	39	4	to	5	333.0	NA
53	10	19	F	Filler	39	4	make	6	334.0	NA
53	10	19	F	Filler	39	4	cookies	7	432.0	NA
53	10	19	F	Filler	39	4	and	8	335.0	NA
53	10	19	F	Filler	39	4	cupcakes	9	366.0	NA
53	10	19	F	Filler	39	4	for	10	368.0	NA
53	10	19	F	Filler	39	4	the	11	333.0	NA
53	10	19	F	Filler	39	4	dinner	12	367.0	NA
53	10	19	F	Filler	39	4	party.	13	400.0	NA
53	10	19	F	Question	39	4	NA	NA	1266.0	1
54	10	19	F	Filler	40	4	The	1	361.0	NA
54	10	19	F	Filler	40	4	boy's	2	501.0	NA
54	10	19	F	Filler	40	4	mother	3	466.0	NA
54	10	19	F	Filler	40	4	was	4	401.0	NA
54	10	19	F	Filler	40	4	very	5	400.0	NA
54	10	19	F	Filler	40	4	happy	6	333.0	NA
54	10	19	F	Filler	40	4	to	7	367.0	NA
54	10	19	F	Filler	40	4	see	8	317.0	NA
54	10	19	F	Filler	40	4	good	9	366.0	NA
54	10	19	F	Filler	40	4	grades	10	334.0	NA
54	10	19	F	Filler	40	4	on	11	400.0	NA
54	10	19	F	Filler	40	4	his	12	333.0	NA
54	10	19	F	Filler	40	4	report	13	333.0	NA
54	10	19	F	Filler	40	4	card.	14	367.0	NA
54	10	19	F	Question	40	4	NA	NA	1333.0	1
55	10	19	F	Filler	115	6	As	1	330.0	NA
55	10	19	F	Filler	115	6	Elaine	2	599.0	NA
55	10	19	F	Filler	115	6	and	3	434.0	NA
55	10	19	F	Filler	115	6	Robert	4	366.0	NA
55	10	19	F	Filler	115	6	fought	5	434.0	NA
55	10	19	F	Filler	115	6	the	6	350.0	NA
55	10	19	F	Filler	115	6	mosquitoes	7	983.0	NA
55	10	19	F	Filler	115	6	whined	8	500.0	NA
55	10	19	F	Filler	115	6	annoyingly.	9	634.0	NA
55	10	19	F	Question	115	6	NA	NA	2469.0	1
56	10	19	F	Filler	72	4	The	1	346.0	NA
56	10	19	F	Filler	72	4	secretaries	2	500.0	NA
56	10	19	F	Filler	72	4	couldn't	3	501.0	NA
56	10	19	F	Filler	72	4	break	4	400.0	NA
56	10	19	F	Filler	72	4	away	5	367.0	NA
56	10	19	F	Filler	72	4	from	6	466.0	NA
56	10	19	F	Filler	72	4	their	7	301.0	NA
56	10	19	F	Filler	72	4	habit	8	399.0	NA
56	10	19	F	Filler	72	4	of	9	399.0	NA
56	10	19	F	Filler	72	4	coffee	10	367.0	NA
56	10	19	F	Filler	72	4	and	11	400.0	NA
56	10	19	F	Filler	72	4	cigarettes	12	501.0	NA
56	10	19	F	Filler	72	4	during	13	433.0	NA
56	10	19	F	Filler	72	4	their	14	334.0	NA
56	10	19	F	Filler	72	4	breaks.	15	366.0	NA
56	10	19	F	Question	72	4	NA	NA	1332.0	1
57	10	19	F	swets	10	1	The	1	381.0	NA
57	10	19	F	swets	10	1	aunt	2	365.0	NA
57	10	19	F	swets	10	1	of	3	334.0	NA
57	10	19	F	swets	10	1	the	4	300.0	NA
57	10	19	F	swets	10	1	nun	5	301.0	NA
57	10	19	F	swets	10	1	who	6	299.0	NA
57	10	19	F	swets	10	1	lost	7	349.0	NA
57	10	19	F	swets	10	1	herself	8	401.0	NA
57	10	19	F	swets	10	1	in	9	400.0	NA
57	10	19	F	swets	10	1	thought	10	567.0	NA
57	10	19	F	swets	10	1	was	11	566.0	NA
57	10	19	F	swets	10	1	disturbed	12	768.0	NA
57	10	19	F	swets	10	1	by	13	434.0	NA
57	10	19	F	swets	10	1	the	14	433.0	NA
57	10	19	F	swets	10	1	noise.	15	567.0	NA
57	10	19	F	Question	10	1	NA	NA	2266.0	1
58	10	19	F	Filler	118	6	As	1	628.0	NA
58	10	19	F	Filler	118	6	the	2	350.0	NA
58	10	19	F	Filler	118	6	dog	3	366.0	NA
58	10	19	F	Filler	118	6	ran	4	368.0	NA
58	10	19	F	Filler	118	6	Wanda	5	733.0	NA
58	10	19	F	Filler	118	6	watched	6	499.0	NA
58	10	19	F	Filler	118	6	from	7	602.0	NA
58	10	19	F	Filler	118	6	the	8	416.0	NA
58	10	19	F	Filler	118	6	window.	9	533.0	NA
58	10	19	F	Question	118	6	NA	NA	1534.0	1
59	10	19	F	Filler	88	5	The	1	329.0	NA
59	10	19	F	Filler	88	5	woman's	2	501.0	NA
59	10	19	F	Filler	88	5	posture	3	434.0	NA
59	10	19	F	Filler	88	5	began	4	399.0	NA
59	10	19	F	Filler	88	5	to	5	366.0	NA
59	10	19	F	Filler	88	5	go	6	367.0	NA
59	10	19	F	Filler	88	5	bad	7	400.0	NA
59	10	19	F	Filler	88	5	because	8	434.0	NA
59	10	19	F	Filler	88	5	of	9	400.0	NA
59	10	19	F	Filler	88	5	her	10	399.0	NA
59	10	19	F	Filler	88	5	constant	11	602.0	NA
59	10	19	F	Filler	88	5	slumping.	12	667.0	NA
59	10	19	F	Question	88	5	NA	NA	1900.0	1
60	10	19	F	Filler	120	6	Sarah	1	262.0	NA
60	10	19	F	Filler	120	6	won't	2	567.0	NA
60	10	19	F	Filler	120	6	reveal	3	768.0	NA
60	10	19	F	Filler	120	6	which	4	533.0	NA
60	10	19	F	Filler	120	6	race	5	367.0	NA
60	10	19	F	Filler	120	6	she	6	382.0	NA
60	10	19	F	Filler	120	6	won	7	366.0	NA
60	10	19	F	Filler	120	6	without	8	335.0	NA
60	10	19	F	Filler	120	6	entering	9	366.0	NA
60	10	19	F	Filler	120	6	the	10	352.0	NA
60	10	19	F	Filler	120	6	competition	11	366.0	NA
60	10	19	F	Filler	120	6	for	12	467.0	NA
60	10	19	F	Filler	120	6	officially.	13	432.0	NA
60	10	19	F	Question	120	6	NA	NA	4768.0	1
61	10	19	F	Filler	81	5	The	1	377.0	NA
61	10	19	F	Filler	81	5	stubborn	2	401.0	NA
61	10	19	F	Filler	81	5	old	3	316.0	NA
61	10	19	F	Filler	81	5	man	4	317.0	NA
61	10	19	F	Filler	81	5	criticized	5	298.0	NA
61	10	19	F	Filler	81	5	everything	6	269.0	NA
61	10	19	F	Filler	81	5	that	7	332.0	NA
61	10	19	F	Filler	81	5	the	8	301.0	NA
61	10	19	F	Filler	81	5	young	9	332.0	NA
61	10	19	F	Filler	81	5	student	10	367.0	NA
61	10	19	F	Filler	81	5	did.	11	334.0	NA
61	10	19	F	Question	81	5	NA	NA	1482.0	1
62	10	19	F	swets	26	2	The	1	362.0	NA
62	10	19	F	swets	26	2	grand-niece	2	400.0	NA
62	10	19	F	swets	26	2	of	3	699.0	NA
62	10	19	F	swets	26	2	the	4	335.0	NA
62	10	19	F	swets	26	2	admiral	5	600.0	NA
62	10	19	F	swets	26	2	who	6	915.0	NA
62	10	19	F	swets	26	2	wrote	7	533.0	NA
62	10	19	F	swets	26	2	himself	8	401.0	NA
62	10	19	F	swets	26	2	a	9	418.0	NA
62	10	19	F	swets	26	2	note	10	366.0	NA
62	10	19	F	swets	26	2	admired	11	499.0	NA
62	10	19	F	swets	26	2	sailors	12	502.0	NA
62	10	19	F	swets	26	2	very	13	500.0	NA
62	10	19	F	swets	26	2	much.	14	399.0	NA
62	10	19	F	Question	26	2	NA	NA	5252.0	1
63	10	19	F	Filler	142	7	The	1	28.0	NA
63	10	19	F	Filler	142	7	cats	2	666.0	NA
63	10	19	F	Filler	142	7	and	3	367.0	NA
63	10	19	F	Filler	142	7	dogs	4	200.0	NA
63	10	19	F	Filler	142	7	glared	5	334.0	NA
63	10	19	F	Filler	142	7	at	6	365.0	NA
63	10	19	F	Filler	142	7	each	7	335.0	NA
63	10	19	F	Filler	142	7	other	8	315.0	NA
63	10	19	F	Filler	142	7	warily.	9	335.0	NA
63	10	19	F	Question	142	7	NA	NA	1599.0	1
64	10	19	F	Filler	58	4	The	1	378.0	NA
64	10	19	F	Filler	58	4	white	2	433.0	NA
64	10	19	F	Filler	58	4	dog	3	300.0	NA
64	10	19	F	Filler	58	4	bit	4	400.0	NA
64	10	19	F	Filler	58	4	the	5	284.0	NA
64	10	19	F	Filler	58	4	ankle	6	400.0	NA
64	10	19	F	Filler	58	4	of	7	334.0	NA
64	10	19	F	Filler	58	4	the	8	266.0	NA
64	10	19	F	Filler	58	4	child.	9	367.0	NA
64	10	19	F	Question	58	4	NA	NA	884.0	1
65	10	19	F	swets	32	2	The	1	296.0	NA
65	10	19	F	swets	32	2	nephew	2	366.0	NA
65	10	19	F	swets	32	2	of	3	366.0	NA
65	10	19	F	swets	32	2	the	4	268.0	NA
65	10	19	F	swets	32	2	duchess	5	299.0	NA
65	10	19	F	swets	32	2	who	6	335.0	NA
65	10	19	F	swets	32	2	looked	7	466.0	NA
65	10	19	F	swets	32	2	at	8	367.0	NA
65	10	19	F	swets	32	2	herself	9	399.0	NA
65	10	19	F	swets	32	2	in	10	335.0	NA
65	10	19	F	swets	32	2	the	11	266.0	NA
65	10	19	F	swets	32	2	mirror	12	300.0	NA
65	10	19	F	swets	32	2	wore	13	367.0	NA
65	10	19	F	swets	32	2	a	14	366.0	NA
65	10	19	F	swets	32	2	blue	15	400.0	NA
65	10	19	F	swets	32	2	shirt.	16	368.0	NA
65	10	19	F	Question	32	2	NA	NA	1399.0	1
66	10	19	F	Filler	125	6	The	1	328.0	NA
66	10	19	F	Filler	125	6	bosses	2	434.0	NA
66	10	19	F	Filler	125	6	and	3	435.0	NA
66	10	19	F	Filler	125	6	secretaries	4	466.0	NA
66	10	19	F	Filler	125	6	took	5	434.0	NA
66	10	19	F	Filler	125	6	a	6	382.0	NA
66	10	19	F	Filler	125	6	long	7	367.0	NA
66	10	19	F	Filler	125	6	lunch	8	449.0	NA
66	10	19	F	Filler	125	6	together	9	367.0	NA
66	10	19	F	Filler	125	6	every	10	401.0	NA
66	10	19	F	Filler	125	6	Friday.	11	600.0	NA
66	10	19	F	Question	125	6	NA	NA	4650.0	1
67	10	19	F	Filler	47	4	The	1	78.0	NA
67	10	19	F	Filler	47	4	boys	2	599.0	NA
67	10	19	F	Filler	47	4	all	3	435.0	NA
67	10	19	F	Filler	47	4	admired	4	365.0	NA
67	10	19	F	Filler	47	4	the	5	368.0	NA
67	10	19	F	Filler	47	4	singer	6	367.0	NA
67	10	19	F	Filler	47	4	of	7	367.0	NA
67	10	19	F	Filler	47	4	the	8	349.0	NA
67	10	19	F	Filler	47	4	song	9	467.0	NA
67	10	19	F	Filler	47	4	with	10	433.0	NA
67	10	19	F	Filler	47	4	the	11	302.0	NA
67	10	19	F	Filler	47	4	long	12	366.0	NA
67	10	19	F	Filler	47	4	eyelashes.	13	667.0	NA
67	10	19	F	Question	47	4	NA	NA	3152.0	1
68	10	19	F	swets	29	2	The	1	312.0	NA
68	10	19	F	swets	29	2	daughter	2	367.0	NA
68	10	19	F	swets	29	2	of	3	367.0	NA
68	10	19	F	swets	29	2	the	4	433.0	NA
68	10	19	F	swets	29	2	colonel	5	867.0	NA
68	10	19	F	swets	29	2	who	6	850.0	NA
68	10	19	F	swets	29	2	enjoyed	7	468.0	NA
68	10	19	F	swets	29	2	himself	8	399.0	NA
68	10	19	F	swets	29	2	a	9	366.0	NA
68	10	19	F	swets	29	2	lot	10	385.0	NA
68	10	19	F	swets	29	2	was	11	399.0	NA
68	10	19	F	swets	29	2	out	12	368.0	NA
68	10	19	F	swets	29	2	on	13	700.0	NA
68	10	19	F	swets	29	2	the	14	283.0	NA
68	10	19	F	swets	29	2	balcony.	15	501.0	NA
68	10	19	F	Question	29	2	NA	NA	1249.0	1
69	10	19	F	Filler	73	5	My	1	328.0	NA
69	10	19	F	Filler	73	5	cousins	2	366.0	NA
69	10	19	F	Filler	73	5	admired	3	369.0	NA
69	10	19	F	Filler	73	5	the	4	367.0	NA
69	10	19	F	Filler	73	5	singer	5	400.0	NA
69	10	19	F	Filler	73	5	although	6	432.0	NA
69	10	19	F	Filler	73	5	she	7	368.0	NA
69	10	19	F	Filler	73	5	never	8	367.0	NA
69	10	19	F	Filler	73	5	became	9	399.0	NA
69	10	19	F	Filler	73	5	popular.	10	400.0	NA
69	10	19	F	Question	73	5	NA	NA	3134.0	1
70	10	19	F	Filler	102	5	The	1	329.0	NA
70	10	19	F	Filler	102	5	old	2	449.0	NA
70	10	19	F	Filler	102	5	man	3	651.0	NA
70	10	19	F	Filler	102	5	appeared	4	500.0	NA
70	10	19	F	Filler	102	5	to	5	434.0	NA
70	10	19	F	Filler	102	5	be	6	367.0	NA
70	10	19	F	Filler	102	5	upset	7	433.0	NA
70	10	19	F	Filler	102	5	by	8	433.0	NA
70	10	19	F	Filler	102	5	the	9	433.0	NA
70	10	19	F	Filler	102	5	teenager's	10	469.0	NA
70	10	19	F	Filler	102	5	ignorant	11	499.0	NA
70	10	19	F	Filler	102	5	remark.	12	467.0	NA
70	10	19	F	Question	102	5	NA	NA	1816.0	1
71	10	19	F	Filler	76	5	After	1	660.0	NA
71	10	19	F	Filler	76	5	fifty	2	602.0	NA
71	10	19	F	Filler	76	5	years	3	432.0	NA
71	10	19	F	Filler	76	5	of	4	401.0	NA
71	10	19	F	Filler	76	5	marriage	5	434.0	NA
71	10	19	F	Filler	76	5	the	6	499.0	NA
71	10	19	F	Filler	76	5	old	7	401.0	NA
71	10	19	F	Filler	76	5	couple	8	368.0	NA
71	10	19	F	Filler	76	5	still	9	399.0	NA
71	10	19	F	Filler	76	5	felt	10	368.0	NA
71	10	19	F	Filler	76	5	the	11	383.0	NA
71	10	19	F	Filler	76	5	same	12	399.0	NA
71	10	19	F	Filler	76	5	about	13	399.0	NA
71	10	19	F	Filler	76	5	each	14	369.0	NA
71	10	19	F	Filler	76	5	other	15	384.0	NA
71	10	19	F	Filler	76	5	as	16	400.0	NA
71	10	19	F	Filler	76	5	they	17	332.0	NA
71	10	19	F	Filler	76	5	had	18	333.0	NA
71	10	19	F	Filler	76	5	on	19	368.0	NA
71	10	19	F	Filler	76	5	their	20	366.0	NA
71	10	19	F	Filler	76	5	wedding	21	334.0	NA
71	10	19	F	Filler	76	5	day.	22	434.0	NA
71	10	19	F	Question	76	5	NA	NA	1367.0	1
72	10	19	F	Filler	127	7	While	1	429.0	NA
72	10	19	F	Filler	127	7	Linda	2	400.0	NA
72	10	19	F	Filler	127	7	wrote	3	500.0	NA
72	10	19	F	Filler	127	7	the	4	451.0	NA
72	10	19	F	Filler	127	7	letter	5	600.0	NA
72	10	19	F	Filler	127	7	arrived	6	1999.0	NA
72	10	19	F	Filler	127	7	from	7	801.0	NA
72	10	19	F	Filler	127	7	Chicago.	8	833.0	NA
72	10	19	F	Question	127	7	NA	NA	2718.0	1
73	10	19	F	Filler	130	7	While	1	345.0	NA
73	10	19	F	Filler	130	7	Margo	2	399.0	NA
73	10	19	F	Filler	130	7	bathed	3	817.0	NA
73	10	19	F	Filler	130	7	the	4	403.0	NA
73	10	19	F	Filler	130	7	dog	5	532.0	NA
73	10	19	F	Filler	130	7	barked	6	566.0	NA
73	10	19	F	Filler	130	7	in	7	466.0	NA
73	10	19	F	Filler	130	7	the	8	318.0	NA
73	10	19	F	Filler	130	7	yard.	9	367.0	NA
73	10	19	F	Question	130	7	NA	NA	2884.0	1
74	10	19	F	swets	12	3	The	1	495.0	NA
74	10	19	F	swets	12	3	son	2	434.0	NA
74	10	19	F	swets	12	3	of	3	399.0	NA
74	10	19	F	swets	12	3	the	4	351.0	NA
74	10	19	F	swets	12	3	princess	5	966.0	NA
74	10	19	F	swets	12	3	who	6	452.0	NA
74	10	19	F	swets	12	3	scratched	7	365.0	NA
74	10	19	F	swets	12	3	herself	8	1134.0	NA
74	10	19	F	swets	12	3	in	9	417.0	NA
74	10	19	F	swets	12	3	public	10	399.0	NA
74	10	19	F	swets	12	3	was	11	435.0	NA
74	10	19	F	swets	12	3	terribly	12	1100.0	NA
74	10	19	F	swets	12	3	humiliated.	13	534.0	NA
74	10	19	F	Question	12	3	NA	NA	1649.0	0
75	10	19	F	Filler	106	5	On	1	364.0	NA
75	10	19	F	Filler	106	5	the	2	482.0	NA
75	10	19	F	Filler	106	5	last	3	466.0	NA
75	10	19	F	Filler	106	5	night	4	401.0	NA
75	10	19	F	Filler	106	5	of	5	368.0	NA
75	10	19	F	Filler	106	5	summer	6	331.0	NA
75	10	19	F	Filler	106	5	camp	7	467.0	NA
75	10	19	F	Filler	106	5	the	8	401.0	NA
75	10	19	F	Filler	106	5	counselors	9	466.0	NA
75	10	19	F	Filler	106	5	let	10	451.0	NA
75	10	19	F	Filler	106	5	the	11	434.0	NA
75	10	19	F	Filler	106	5	children	12	401.0	NA
75	10	19	F	Filler	106	5	stay	13	399.0	NA
75	10	19	F	Filler	106	5	up	14	399.0	NA
75	10	19	F	Filler	106	5	until	15	401.0	NA
75	10	19	F	Filler	106	5	midnight.	16	433.0	NA
75	10	19	F	Question	106	5	NA	NA	1402.0	1
76	10	19	F	swets	36	3	The	1	479.0	NA
76	10	19	F	swets	36	3	son	2	600.0	NA
76	10	19	F	swets	36	3	of	3	433.0	NA
76	10	19	F	swets	36	3	the	4	334.0	NA
76	10	19	F	swets	36	3	saleswoman	5	366.0	NA
76	10	19	F	swets	36	3	who	6	451.0	NA
76	10	19	F	swets	36	3	talked	7	365.0	NA
76	10	19	F	swets	36	3	to	8	284.0	NA
76	10	19	F	swets	36	3	himself	9	335.0	NA
76	10	19	F	swets	36	3	all	10	1333.0	NA
76	10	19	F	swets	36	3	the	11	316.0	NA
76	10	19	F	swets	36	3	time	12	368.0	NA
76	10	19	F	swets	36	3	walked	13	333.0	NA
76	10	19	F	swets	36	3	into	14	434.0	NA
76	10	19	F	swets	36	3	the	15	365.0	NA
76	10	19	F	swets	36	3	room.	16	334.0	NA
76	10	19	F	Question	36	3	NA	NA	1802.0	1
77	10	19	F	Filler	99	5	The	1	295.0	NA
77	10	19	F	Filler	99	5	daring	2	465.0	NA
77	10	19	F	Filler	99	5	photographer	3	601.0	NA
77	10	19	F	Filler	99	5	captured	4	433.0	NA
77	10	19	F	Filler	99	5	the	5	351.0	NA
77	10	19	F	Filler	99	5	image	6	367.0	NA
77	10	19	F	Filler	99	5	of	7	366.0	NA
77	10	19	F	Filler	99	5	the	8	334.0	NA
77	10	19	F	Filler	99	5	destruction	9	466.0	NA
77	10	19	F	Filler	99	5	as	10	833.0	NA
77	10	19	F	Filler	99	5	it	11	401.0	NA
77	10	19	F	Filler	99	5	devastated	12	699.0	NA
77	10	19	F	Filler	99	5	the	13	418.0	NA
77	10	19	F	Filler	99	5	village.	14	434.0	NA
77	10	19	F	Question	99	5	NA	NA	1434.0	1
78	10	19	F	Filler	63	4	The	1	278.0	NA
78	10	19	F	Filler	63	4	bride	2	467.0	NA
78	10	19	F	Filler	63	4	was	3	402.0	NA
78	10	19	F	Filler	63	4	devastated	4	366.0	NA
78	10	19	F	Filler	63	4	to	5	367.0	NA
78	10	19	F	Filler	63	4	lose	6	382.0	NA
78	10	19	F	Filler	63	4	her	7	368.0	NA
78	10	19	F	Filler	63	4	gold	8	367.0	NA
78	10	19	F	Filler	63	4	ring	9	666.0	NA
78	10	19	F	Filler	63	4	with	10	400.0	NA
78	10	19	F	Filler	63	4	a	11	399.0	NA
78	10	19	F	Filler	63	4	gleaming	12	433.0	NA
78	10	19	F	Filler	63	4	diamond	13	435.0	NA
78	10	19	F	Filler	63	4	in	14	450.0	NA
78	10	19	F	Filler	63	4	the	15	401.0	NA
78	10	19	F	Filler	63	4	middle.	16	366.0	NA
78	10	19	F	Question	63	4	NA	NA	1750.0	1
79	10	19	F	Filler	105	5	The	1	462.0	NA
79	10	19	F	Filler	105	5	actors	2	467.0	NA
79	10	19	F	Filler	105	5	rehearsed	3	400.0	NA
79	10	19	F	Filler	105	5	the	4	416.0	NA
79	10	19	F	Filler	105	5	play	5	401.0	NA
79	10	19	F	Filler	105	5	so	6	433.0	NA
79	10	19	F	Filler	105	5	much	7	432.0	NA
79	10	19	F	Filler	105	5	that	8	301.0	NA
79	10	19	F	Filler	105	5	they	9	334.0	NA
79	10	19	F	Filler	105	5	became	10	366.0	NA
79	10	19	F	Filler	105	5	bored	11	367.0	NA
79	10	19	F	Filler	105	5	with	12	366.0	NA
79	10	19	F	Filler	105	5	it.	13	336.0	NA
79	10	19	F	Question	105	5	NA	NA	1198.0	1
80	10	19	F	Filler	75	5	The	1	328.0	NA
80	10	19	F	Filler	75	5	musician	2	467.0	NA
80	10	19	F	Filler	75	5	shocked	3	301.0	NA
80	10	19	F	Filler	75	5	the	4	399.0	NA
80	10	19	F	Filler	75	5	audience	5	333.0	NA
80	10	19	F	Filler	75	5	because	6	367.0	NA
80	10	19	F	Filler	75	5	they	7	399.0	NA
80	10	19	F	Filler	75	5	did	8	433.0	NA
80	10	19	F	Filler	75	5	not	9	400.0	NA
80	10	19	F	Filler	75	5	realize	10	735.0	NA
80	10	19	F	Filler	75	5	what	11	399.0	NA
80	10	19	F	Filler	75	5	these	12	300.0	NA
80	10	19	F	Filler	75	5	shows	13	369.0	NA
80	10	19	F	Filler	75	5	were	14	365.0	NA
80	10	19	F	Filler	75	5	like.	15	402.0	NA
80	10	19	F	Question	75	5	NA	NA	2032.0	1
81	10	19	F	swets	18	3	The	1	411.0	NA
81	10	19	F	swets	18	3	niece	2	400.0	NA
81	10	19	F	swets	18	3	of	3	399.0	NA
81	10	19	F	swets	18	3	the	4	384.0	NA
81	10	19	F	swets	18	3	fisherman	5	868.0	NA
81	10	19	F	swets	18	3	who	6	618.0	NA
81	10	19	F	swets	18	3	drowned	7	633.0	NA
81	10	19	F	swets	18	3	herself	8	765.0	NA
81	10	19	F	swets	18	3	in	9	535.0	NA
81	10	19	F	swets	18	3	the	10	332.0	NA
81	10	19	F	swets	18	3	ocean	11	335.0	NA
81	10	19	F	swets	18	3	didn't	12	366.0	NA
81	10	19	F	swets	18	3	know	13	333.0	NA
81	10	19	F	swets	18	3	about	14	299.0	NA
81	10	19	F	swets	18	3	the	15	253.0	NA
81	10	19	F	swets	18	3	tricky	16	334.0	NA
81	10	19	F	swets	18	3	current.	17	331.0	NA
81	10	19	F	Question	18	3	NA	NA	1000.0	1
82	10	19	F	Filler	119	6	Everybody	1	1279.0	NA
82	10	19	F	Filler	119	6	is	2	366.0	NA
82	10	19	F	Filler	119	6	wondering	3	366.0	NA
82	10	19	F	Filler	119	6	which	4	300.0	NA
82	10	19	F	Filler	119	6	software	5	402.0	NA
82	10	19	F	Filler	119	6	Gary	6	400.0	NA
82	10	19	F	Filler	119	6	installed	7	400.0	NA
82	10	19	F	Filler	119	6	without	8	398.0	NA
82	10	19	F	Filler	119	6	buying	9	367.0	NA
82	10	19	F	Filler	119	6	last	10	335.0	NA
82	10	19	F	Filler	119	6	June.	11	399.0	NA
82	10	19	F	Question	119	6	NA	NA	1550.0	1
83	10	19	F	Filler	51	4	The	1	345.0	NA
83	10	19	F	Filler	51	4	students	2	466.0	NA
83	10	19	F	Filler	51	4	were	3	400.0	NA
83	10	19	F	Filler	51	4	in	4	318.0	NA
83	10	19	F	Filler	51	4	a	5	335.0	NA
83	10	19	F	Filler	51	4	frenzy	6	333.0	NA
83	10	19	F	Filler	51	4	because	7	433.0	NA
83	10	19	F	Filler	51	4	they	8	332.0	NA
83	10	19	F	Filler	51	4	wanted	9	401.0	NA
83	10	19	F	Filler	51	4	tickets	10	466.0	NA
83	10	19	F	Filler	51	4	for	11	367.0	NA
83	10	19	F	Filler	51	4	the	12	300.0	NA
83	10	19	F	Filler	51	4	game	13	400.0	NA
83	10	19	F	Filler	51	4	tonight.	14	368.0	NA
83	10	19	F	Question	51	4	NA	NA	2100.0	1
84	10	19	F	Filler	95	5	The	1	312.0	NA
84	10	19	F	Filler	95	5	receptionist	2	566.0	NA
84	10	19	F	Filler	95	5	of	3	368.0	NA
84	10	19	F	Filler	95	5	the	4	251.0	NA
84	10	19	F	Filler	95	5	company	5	366.0	NA
84	10	19	F	Filler	95	5	went	6	401.0	NA
84	10	19	F	Filler	95	5	home	7	398.0	NA
84	10	19	F	Filler	95	5	sick	8	402.0	NA
84	10	19	F	Filler	95	5	before	9	366.0	NA
84	10	19	F	Filler	95	5	moving	10	399.0	NA
84	10	19	F	Filler	95	5	across	11	334.0	NA
84	10	19	F	Filler	95	5	town.	12	334.0	NA
84	10	19	F	Question	95	5	NA	NA	2266.0	1
85	10	19	F	Filler	87	5	The	1	295.0	NA
85	10	19	F	Filler	87	5	car	2	565.0	NA
85	10	19	F	Filler	87	5	chased	3	335.0	NA
85	10	19	F	Filler	87	5	the	4	383.0	NA
85	10	19	F	Filler	87	5	robber	5	501.0	NA
85	10	19	F	Filler	87	5	of	6	432.0	NA
85	10	19	F	Filler	87	5	the	7	369.0	NA
85	10	19	F	Filler	87	5	bank	8	565.0	NA
85	10	19	F	Filler	87	5	into	9	402.0	NA
85	10	19	F	Filler	87	5	a	10	365.0	NA
85	10	19	F	Filler	87	5	narrow	11	1001.0	NA
85	10	19	F	Filler	87	5	alley.	12	766.0	NA
85	10	19	F	Question	87	5	NA	NA	3785.0	1
86	10	19	F	Filler	100	5	There	1	511.0	NA
86	10	19	F	Filler	100	5	was	2	434.0	NA
86	10	19	F	Filler	100	5	a	3	566.0	NA
86	10	19	F	Filler	100	5	large	4	468.0	NA
86	10	19	F	Filler	100	5	sale	5	633.0	NA
86	10	19	F	Filler	100	5	on	6	367.0	NA
86	10	19	F	Filler	100	5	stationary	7	366.0	NA
86	10	19	F	Filler	100	5	and	8	366.0	NA
86	10	19	F	Filler	100	5	office	9	336.0	NA
86	10	19	F	Filler	100	5	supplies	10	364.0	NA
86	10	19	F	Filler	100	5	at	11	368.0	NA
86	10	19	F	Filler	100	5	the	12	317.0	NA
86	10	19	F	Filler	100	5	student	13	366.0	NA
86	10	19	F	Filler	100	5	bookstore.	14	399.0	NA
86	10	19	F	Question	100	5	NA	NA	2702.0	1
87	10	19	F	swets	11	2	The	1	894.0	NA
87	10	19	F	swets	11	2	mother	2	400.0	NA
87	10	19	F	swets	11	2	of	3	434.0	NA
87	10	19	F	swets	11	2	the	4	349.0	NA
87	10	19	F	swets	11	2	surgeon	5	866.0	NA
87	10	19	F	swets	11	2	who	6	367.0	NA
87	10	19	F	swets	11	2	made	7	367.0	NA
87	10	19	F	swets	11	2	a	8	435.0	NA
87	10	19	F	swets	11	2	fool	9	366.0	NA
87	10	19	F	swets	11	2	of	10	366.0	NA
87	10	19	F	swets	11	2	himself	11	900.0	NA
87	10	19	F	swets	11	2	at	12	333.0	NA
87	10	19	F	swets	11	2	the	13	300.0	NA
87	10	19	F	swets	11	2	party	14	334.0	NA
87	10	19	F	swets	11	2	was	15	400.0	NA
87	10	19	F	swets	11	2	greatly	16	334.0	NA
87	10	19	F	swets	11	2	embarrassed.	17	368.0	NA
87	10	19	F	Question	11	2	NA	NA	1298.0	1
88	10	19	F	Filler	126	6	The	1	345.0	NA
88	10	19	F	Filler	126	6	boxes	2	434.0	NA
88	10	19	F	Filler	126	6	and	3	334.0	NA
88	10	19	F	Filler	126	6	hangers	4	299.0	NA
88	10	19	F	Filler	126	6	had	5	334.0	NA
88	10	19	F	Filler	126	6	been	6	366.0	NA
88	10	19	F	Filler	126	6	stuffed	7	367.0	NA
88	10	19	F	Filler	126	6	in	8	383.0	NA
88	10	19	F	Filler	126	6	the	9	335.0	NA
88	10	19	F	Filler	126	6	closet.	10	367.0	NA
88	10	19	F	Question	126	6	NA	NA	4466.0	1
89	10	19	F	Filler	112	6	As	1	528.0	NA
89	10	19	F	Filler	112	6	the	2	335.0	NA
89	10	19	F	Filler	112	6	dog	3	399.0	NA
89	10	19	F	Filler	112	6	was	4	333.0	NA
89	10	19	F	Filler	112	6	calming	5	334.0	NA
89	10	19	F	Filler	112	6	down	6	634.0	NA
89	10	19	F	Filler	112	6	the	7	316.0	NA
89	10	19	F	Filler	112	6	puppy	8	766.0	NA
89	10	19	F	Filler	112	6	slept	9	432.0	NA
89	10	19	F	Filler	112	6	in	10	352.0	NA
89	10	19	F	Filler	112	6	the	11	317.0	NA
89	10	19	F	Filler	112	6	cage.	12	366.0	NA
89	10	19	F	Question	112	6	NA	NA	1802.0	0
90	10	19	F	swets	15	3	The	1	346.0	NA
90	10	19	F	swets	15	3	husband	2	633.0	NA
90	10	19	F	swets	15	3	of	3	499.0	NA
90	10	19	F	swets	15	3	the	4	551.0	NA
90	10	19	F	swets	15	3	beautician	5	732.0	NA
90	10	19	F	swets	15	3	who	6	401.0	NA
90	10	19	F	swets	15	3	cut	7	433.0	NA
90	10	19	F	swets	15	3	himself	8	667.0	NA
90	10	19	F	swets	15	3	on	9	433.0	NA
90	10	19	F	swets	15	3	the	10	950.0	NA
90	10	19	F	swets	15	3	broken	11	484.0	NA
90	10	19	F	swets	15	3	glass	12	399.0	NA
90	10	19	F	swets	15	3	phoned	13	434.0	NA
90	10	19	F	swets	15	3	for	14	367.0	NA
90	10	19	F	swets	15	3	a	15	400.0	NA
90	10	19	F	swets	15	3	doctor.	16	401.0	NA
90	10	19	F	Question	15	3	NA	NA	1351.0	1
91	10	19	F	Filler	134	7	As	1	361.0	NA
91	10	19	F	Filler	134	7	Shawnie	2	383.0	NA
91	10	19	F	Filler	134	7	and	3	401.0	NA
91	10	19	F	Filler	134	7	Nick	4	366.0	NA
91	10	19	F	Filler	134	7	were	5	250.0	NA
91	10	19	F	Filler	134	7	embracing	6	366.0	NA
91	10	19	F	Filler	134	7	the	7	352.0	NA
91	10	19	F	Filler	134	7	doctor	8	401.0	NA
91	10	19	F	Filler	134	7	the	9	332.0	NA
91	10	19	F	Filler	134	7	visitor	10	433.0	NA
91	10	19	F	Filler	134	7	entered	11	1502.0	NA
91	10	19	F	Filler	134	7	the	12	433.0	NA
91	10	19	F	Filler	134	7	room.	13	433.0	NA
91	10	19	F	Question	134	7	NA	NA	1250.0	1
92	10	19	F	Filler	48	4	The	1	362.0	NA
92	10	19	F	Filler	48	4	police	2	466.0	NA
92	10	19	F	Filler	48	4	arrested	3	401.0	NA
92	10	19	F	Filler	48	4	the	4	366.0	NA
92	10	19	F	Filler	48	4	sister	5	368.0	NA
92	10	19	F	Filler	48	4	of	6	300.0	NA
92	10	19	F	Filler	48	4	the	7	333.0	NA
92	10	19	F	Filler	48	4	handyman	8	1017.0	NA
92	10	19	F	Filler	48	4	after	9	1868.0	NA
92	10	19	F	Filler	48	4	she	10	366.0	NA
92	10	19	F	Filler	48	4	recently	11	467.0	NA
92	10	19	F	Filler	48	4	gave	12	466.0	NA
92	10	19	F	Filler	48	4	birth	13	934.0	NA
92	10	19	F	Filler	48	4	to	14	400.0	NA
92	10	19	F	Filler	48	4	twins.	15	334.0	NA
92	10	19	F	Question	48	4	NA	NA	1001.0	1
93	10	19	F	Filler	49	4	The	1	1512.0	NA
93	10	19	F	Filler	49	4	construction	2	400.0	NA
93	10	19	F	Filler	49	4	worker	3	400.0	NA
93	10	19	F	Filler	49	4	sued	4	433.0	NA
93	10	19	F	Filler	49	4	the	5	333.0	NA
93	10	19	F	Filler	49	4	son	6	467.0	NA
93	10	19	F	Filler	49	4	of	7	334.0	NA
93	10	19	F	Filler	49	4	that	8	333.0	NA
93	10	19	F	Filler	49	4	greedy	9	568.0	NA
93	10	19	F	Filler	49	4	banker.	10	700.0	NA
93	10	19	F	Question	49	4	NA	NA	2450.0	1
94	10	19	F	Filler	108	5	The	1	662.0	NA
94	10	19	F	Filler	108	5	museum	2	433.0	NA
94	10	19	F	Filler	108	5	wing	3	467.0	NA
94	10	19	F	Filler	108	5	which	4	434.0	NA
94	10	19	F	Filler	108	5	housed	5	333.0	NA
94	10	19	F	Filler	108	5	all	6	434.0	NA
94	10	19	F	Filler	108	5	the	7	300.0	NA
94	10	19	F	Filler	108	5	Picasso	8	367.0	NA
94	10	19	F	Filler	108	5	paintings	9	434.0	NA
94	10	19	F	Filler	108	5	was	10	368.0	NA
94	10	19	F	Filler	108	5	very	11	366.0	NA
94	10	19	F	Filler	108	5	crowded.	12	399.0	NA
94	10	19	F	Question	108	5	NA	NA	2018.0	1
95	10	19	F	Filler	50	4	The	1	346.0	NA
95	10	19	F	Filler	50	4	new	2	366.0	NA
95	10	19	F	Filler	50	4	language	3	333.0	NA
95	10	19	F	Filler	50	4	requirement	4	351.0	NA
95	10	19	F	Filler	50	4	made	5	400.0	NA
95	10	19	F	Filler	50	4	all	6	367.0	NA
95	10	19	F	Filler	50	4	the	7	351.0	NA
95	10	19	F	Filler	50	4	students	8	399.0	NA
95	10	19	F	Filler	50	4	say	9	433.0	NA
95	10	19	F	Filler	50	4	bad	10	432.0	NA
95	10	19	F	Filler	50	4	things	11	434.0	NA
95	10	19	F	Filler	50	4	about	12	367.0	NA
95	10	19	F	Filler	50	4	the	13	251.0	NA
95	10	19	F	Filler	50	4	dean	14	398.0	NA
95	10	19	F	Filler	50	4	of	15	268.0	NA
95	10	19	F	Filler	50	4	the	16	334.0	NA
95	10	19	F	Filler	50	4	college.	17	333.0	NA
95	10	19	F	Question	50	4	NA	NA	1849.0	1
96	10	19	F	swets	23	2	The	1	263.0	NA
96	10	19	F	swets	23	2	father	2	399.0	NA
96	10	19	F	swets	23	2	of	3	300.0	NA
96	10	19	F	swets	23	2	the	4	267.0	NA
96	10	19	F	swets	23	2	ballerina	5	233.0	NA
96	10	19	F	swets	23	2	who	6	350.0	NA
96	10	19	F	swets	23	2	found	7	400.0	NA
96	10	19	F	swets	23	2	herself	8	334.0	NA
96	10	19	F	swets	23	2	in	9	332.0	NA
96	10	19	F	swets	23	2	a	10	269.0	NA
96	10	19	F	swets	23	2	lot	11	383.0	NA
96	10	19	F	swets	23	2	of	12	233.0	NA
96	10	19	F	swets	23	2	trouble	13	301.0	NA
96	10	19	F	swets	23	2	phoned	14	300.0	NA
96	10	19	F	swets	23	2	the	15	332.0	NA
96	10	19	F	swets	23	2	police.	16	468.0	NA
96	10	19	F	Question	23	2	NA	NA	1549.0	1
97	10	19	F	Filler	85	5	The	1	312.0	NA
97	10	19	F	Filler	85	5	college	2	599.0	NA
97	10	19	F	Filler	85	5	students	3	469.0	NA
97	10	19	F	Filler	85	5	were	4	1131.0	NA
97	10	19	F	Filler	85	5	upset	5	367.0	NA
97	10	19	F	Filler	85	5	that	6	267.0	NA
97	10	19	F	Filler	85	5	they	7	333.0	NA
97	10	19	F	Filler	85	5	had	8	235.0	NA
97	10	19	F	Filler	85	5	an	9	216.0	NA
97	10	19	F	Filler	85	5	exam	10	367.0	NA
97	10	19	F	Filler	85	5	the	11	251.0	NA
97	10	19	F	Filler	85	5	next	12	266.0	NA
97	10	19	F	Filler	85	5	day.	13	299.0	NA
97	10	19	F	Question	85	5	NA	NA	1101.0	1
98	10	19	F	Filler	131	7	While	1	278.0	NA
98	10	19	F	Filler	131	7	Jamie	2	934.0	NA
98	10	19	F	Filler	131	7	dried	3	466.0	NA
98	10	19	F	Filler	131	7	off	4	435.0	NA
98	10	19	F	Filler	131	7	the	5	349.0	NA
98	10	19	F	Filler	131	7	table	6	417.0	NA
98	10	19	F	Filler	131	7	his	7	467.0	NA
98	10	19	F	Filler	131	7	sunglasses	8	434.0	NA
98	10	19	F	Filler	131	7	disappeared.	9	434.0	NA
98	10	19	F	Question	131	7	NA	NA	1499.0	1
99	10	19	F	swets	24	3	The	1	596.0	NA
99	10	19	F	swets	24	3	daughter	2	466.0	NA
99	10	19	F	swets	24	3	of	3	567.0	NA
99	10	19	F	swets	24	3	the	4	302.0	NA
99	10	19	F	swets	24	3	chaplain	5	433.0	NA
99	10	19	F	swets	24	3	who	6	448.0	NA
99	10	19	F	swets	24	3	drew	7	335.0	NA
99	10	19	F	swets	24	3	attention	8	299.0	NA
99	10	19	F	swets	24	3	to	9	349.0	NA
99	10	19	F	swets	24	3	herself	10	635.0	NA
99	10	19	F	swets	24	3	all	11	498.0	NA
99	10	19	F	swets	24	3	the	12	335.0	NA
99	10	19	F	swets	24	3	time	13	399.0	NA
99	10	19	F	swets	24	3	hated	14	401.0	NA
99	10	19	F	swets	24	3	small	15	367.0	NA
99	10	19	F	swets	24	3	children.	16	400.0	NA
99	10	19	F	Question	24	3	NA	NA	2900.0	1
100	10	19	F	Filler	123	6	The	1	311.0	NA
100	10	19	F	Filler	123	6	student	2	400.0	NA
100	10	19	F	Filler	123	6	and	3	368.0	NA
100	10	19	F	Filler	123	6	professor	4	465.0	NA
100	10	19	F	Filler	123	6	went	5	400.0	NA
100	10	19	F	Filler	123	6	for	6	400.0	NA
100	10	19	F	Filler	123	6	a	7	401.0	NA
100	10	19	F	Filler	123	6	walk	8	467.0	NA
100	10	19	F	Filler	123	6	last	9	466.0	NA
100	10	19	F	Filler	123	6	Tuesday.	10	2100.0	NA
100	10	19	F	Question	123	6	NA	NA	2301.0	1
101	10	19	F	Filler	45	4	The	1	329.0	NA
101	10	19	F	Filler	45	4	plumber	2	333.0	NA
101	10	19	F	Filler	45	4	repaired	3	566.0	NA
101	10	19	F	Filler	45	4	the	4	302.0	NA
101	10	19	F	Filler	45	4	sink	5	365.0	NA
101	10	19	F	Filler	45	4	of	6	334.0	NA
101	10	19	F	Filler	45	4	the	7	299.0	NA
101	10	19	F	Filler	45	4	tenant	8	334.0	NA
101	10	19	F	Filler	45	4	because	9	400.0	NA
101	10	19	F	Filler	45	4	he	10	350.0	NA
101	10	19	F	Filler	45	4	had	11	368.0	NA
101	10	19	F	Filler	45	4	just	12	700.0	NA
101	10	19	F	Filler	45	4	moved	13	400.0	NA
101	10	19	F	Filler	45	4	in.	14	484.0	NA
101	10	19	F	Question	45	4	NA	NA	1200.0	1
102	10	19	F	Filler	122	6	They	1	428.0	NA
102	10	19	F	Filler	122	6	don't	2	334.0	NA
102	10	19	F	Filler	122	6	know	3	266.0	NA
102	10	19	F	Filler	122	6	which	4	300.0	NA
102	10	19	F	Filler	122	6	family	5	400.0	NA
102	10	19	F	Filler	122	6	the	6	217.0	NA
102	10	19	F	Filler	122	6	hijackers	7	332.0	NA
102	10	19	F	Filler	122	6	held	8	350.0	NA
102	10	19	F	Filler	122	6	hostage	9	335.0	NA
102	10	19	F	Filler	122	6	but	10	334.0	NA
102	10	19	F	Filler	122	6	didn't	11	399.0	NA
102	10	19	F	Filler	122	6	hurt	12	402.0	NA
102	10	19	F	Filler	122	6	the	13	349.0	NA
102	10	19	F	Filler	122	6	children	14	400.0	NA
102	10	19	F	Filler	122	6	of	15	466.0	NA
102	10	19	F	Filler	122	6	too	16	317.0	NA
102	10	19	F	Filler	122	6	much.	17	368.0	NA
102	10	19	F	Question	122	6	NA	NA	1549.0	1
103	10	19	F	Filler	65	4	Even	1	295.0	NA
103	10	19	F	Filler	65	4	though	2	366.0	NA
103	10	19	F	Filler	65	4	the	3	301.0	NA
103	10	19	F	Filler	65	4	goalie	4	399.0	NA
103	10	19	F	Filler	65	4	had	5	334.0	NA
103	10	19	F	Filler	65	4	a	6	332.0	NA
103	10	19	F	Filler	65	4	bad	7	368.0	NA
103	10	19	F	Filler	65	4	cold	8	367.0	NA
103	10	19	F	Filler	65	4	the	9	535.0	NA
103	10	19	F	Filler	65	4	team	10	598.0	NA
103	10	19	F	Filler	65	4	was	11	501.0	NA
103	10	19	F	Filler	65	4	preparing	12	634.0	NA
103	10	19	F	Filler	65	4	for	13	433.0	NA
103	10	19	F	Filler	65	4	the	14	316.0	NA
103	10	19	F	Filler	65	4	tournament.	15	600.0	NA
103	10	19	F	Question	65	4	NA	NA	1050.0	1
104	10	19	F	swets	34	1	The	1	395.0	NA
104	10	19	F	swets	34	1	waitress	2	399.0	NA
104	10	19	F	swets	34	1	of	3	367.0	NA
104	10	19	F	swets	34	1	the	4	318.0	NA
104	10	19	F	swets	34	1	woman	5	333.0	NA
104	10	19	F	swets	34	1	who	6	332.0	NA
104	10	19	F	swets	34	1	considered	7	334.0	NA
104	10	19	F	swets	34	1	herself	8	399.0	NA
104	10	19	F	swets	34	1	a	9	369.0	NA
104	10	19	F	swets	34	1	natural	10	432.0	NA
104	10	19	F	swets	34	1	beauty	11	400.0	NA
104	10	19	F	swets	34	1	spilled	12	1717.0	NA
104	10	19	F	swets	34	1	the	13	318.0	NA
104	10	19	F	swets	34	1	drinks.	14	267.0	NA
104	10	19	F	Question	34	1	NA	NA	2499.0	1
105	10	19	F	Filler	44	4	The	1	361.0	NA
105	10	19	F	Filler	44	4	solicitor	2	401.0	NA
105	10	19	F	Filler	44	4	wearing	3	399.0	NA
105	10	19	F	Filler	44	4	the	4	200.0	NA
105	10	19	F	Filler	44	4	new	5	401.0	NA
105	10	19	F	Filler	44	4	tuxedo	6	234.0	NA
105	10	19	F	Filler	44	4	bothered	7	500.0	NA
105	10	19	F	Filler	44	4	a	8	451.0	NA
105	10	19	F	Filler	44	4	man	9	399.0	NA
105	10	19	F	Filler	44	4	from	10	332.0	NA
105	10	19	F	Filler	44	4	New	11	301.0	NA
105	10	19	F	Filler	44	4	York.	12	366.0	NA
105	10	19	F	Question	44	4	NA	NA	3653.0	1
106	10	19	F	Filler	54	4	The	1	311.0	NA
106	10	19	F	Filler	54	4	video	2	432.0	NA
106	10	19	F	Filler	54	4	screen	3	335.0	NA
106	10	19	F	Filler	54	4	of	4	366.0	NA
106	10	19	F	Filler	54	4	the	5	301.0	NA
106	10	19	F	Filler	54	4	monitor	6	366.0	NA
106	10	19	F	Filler	54	4	made	7	1367.0	NA
106	10	19	F	Filler	54	4	strange	8	401.0	NA
106	10	19	F	Filler	54	4	noises	9	532.0	NA
106	10	19	F	Filler	54	4	and	10	401.0	NA
106	10	19	F	Filler	54	4	started	11	334.0	NA
106	10	19	F	Filler	54	4	emitting	12	268.0	NA
106	10	19	F	Filler	54	4	strange	13	331.0	NA
106	10	19	F	Filler	54	4	flashes.	14	301.0	NA
106	10	19	F	Question	54	4	NA	NA	2400.0	1
107	10	19	F	Filler	113	6	While	1	527.0	NA
107	10	19	F	Filler	113	6	Noah	2	435.0	NA
107	10	19	F	Filler	113	6	was	3	399.0	NA
107	10	19	F	Filler	113	6	waking	4	367.0	NA
107	10	19	F	Filler	113	6	up	5	534.0	NA
107	10	19	F	Filler	113	6	the	6	333.0	NA
107	10	19	F	Filler	113	6	man	7	284.0	NA
107	10	19	F	Filler	113	6	the	8	332.0	NA
107	10	19	F	Filler	113	6	neighbor	9	302.0	NA
107	10	19	F	Filler	113	6	coughed	10	333.0	NA
107	10	19	F	Filler	113	6	loudly.	11	333.0	NA
107	10	19	F	Question	113	6	NA	NA	1200.0	1
108	10	19	F	swets	28	1	The	1	495.0	NA
108	10	19	F	swets	28	1	sister	2	568.0	NA
108	10	19	F	swets	28	1	of	3	700.0	NA
108	10	19	F	swets	28	1	the	4	301.0	NA
108	10	19	F	swets	28	1	baroness	5	382.0	NA
108	10	19	F	swets	28	1	who	6	418.0	NA
108	10	19	F	swets	28	1	admired	7	298.0	NA
108	10	19	F	swets	28	1	herself	8	335.0	NA
108	10	19	F	swets	28	1	an	9	333.0	NA
108	10	19	F	swets	28	1	inordinate	10	399.0	NA
108	10	19	F	swets	28	1	amount	11	402.0	NA
108	10	19	F	swets	28	1	enjoyed	12	367.0	NA
108	10	19	F	swets	28	1	all	13	333.0	NA
108	10	19	F	swets	28	1	the	14	333.0	NA
108	10	19	F	swets	28	1	attention.	15	367.0	NA
108	10	19	F	Question	28	1	NA	NA	2600.0	1
109	10	19	F	Filler	53	4	The	1	279.0	NA
109	10	19	F	Filler	53	4	clay	2	331.0	NA
109	10	19	F	Filler	53	4	pot	3	534.0	NA
109	10	19	F	Filler	53	4	was	4	200.0	NA
109	10	19	F	Filler	53	4	full	5	334.0	NA
109	10	19	F	Filler	53	4	of	6	201.0	NA
109	10	19	F	Filler	53	4	gold	7	398.0	NA
109	10	19	F	Filler	53	4	coins	8	301.0	NA
109	10	19	F	Filler	53	4	and	9	368.0	NA
109	10	19	F	Filler	53	4	the	10	415.0	NA
109	10	19	F	Filler	53	4	thief	11	601.0	NA
109	10	19	F	Filler	53	4	knew	12	434.0	NA
109	10	19	F	Filler	53	4	he	13	334.0	NA
109	10	19	F	Filler	53	4	had	14	367.0	NA
109	10	19	F	Filler	53	4	finally	15	333.0	NA
109	10	19	F	Filler	53	4	hit	16	332.0	NA
109	10	19	F	Filler	53	4	the	17	317.0	NA
109	10	19	F	Filler	53	4	jackpot.	18	317.0	NA
109	10	19	F	Question	53	4	NA	NA	1201.0	1
110	10	19	F	Filler	64	4	Because	1	344.0	NA
110	10	19	F	Filler	64	4	a	2	351.0	NA
110	10	19	F	Filler	64	4	fire	3	365.0	NA
110	10	19	F	Filler	64	4	alarm	4	301.0	NA
110	10	19	F	Filler	64	4	interrupted	5	366.0	NA
110	10	19	F	Filler	64	4	the	6	368.0	NA
110	10	19	F	Filler	64	4	exam	7	267.0	NA
110	10	19	F	Filler	64	4	the	8	384.0	NA
110	10	19	F	Filler	64	4	scores	9	383.0	NA
110	10	19	F	Filler	64	4	were	10	300.0	NA
110	10	19	F	Filler	64	4	disqualified.	11	349.0	NA
110	10	19	F	Question	64	4	NA	NA	1450.0	1
111	10	19	F	swets	8	2	The	1	95.0	NA
111	10	19	F	swets	8	2	brother	2	733.0	NA
111	10	19	F	swets	8	2	of	3	334.0	NA
111	10	19	F	swets	8	2	the	4	251.0	NA
111	10	19	F	swets	8	2	seamstress	5	366.0	NA
111	10	19	F	swets	8	2	who	6	384.0	NA
111	10	19	F	swets	8	2	entertained	7	400.0	NA
111	10	19	F	swets	8	2	herself	8	399.0	NA
111	10	19	F	swets	8	2	most	9	434.0	NA
111	10	19	F	swets	8	2	evenings	10	599.0	NA
111	10	19	F	swets	8	2	was	11	535.0	NA
111	10	19	F	swets	8	2	reading	12	533.0	NA
111	10	19	F	swets	8	2	a	13	367.0	NA
111	10	19	F	swets	8	2	book.	14	367.0	NA
111	10	19	F	Question	8	2	NA	NA	1151.0	1
112	10	19	F	Filler	133	7	While	1	346.0	NA
112	10	19	F	Filler	133	7	the	2	399.0	NA
112	10	19	F	Filler	133	7	lawyers	3	401.0	NA
112	10	19	F	Filler	133	7	fought	4	366.0	NA
112	10	19	F	Filler	133	7	the	5	333.0	NA
112	10	19	F	Filler	133	7	ruling	6	332.0	NA
112	10	19	F	Filler	133	7	the	7	369.0	NA
112	10	19	F	Filler	133	7	judge	8	382.0	NA
112	10	19	F	Filler	133	7	announced	9	334.0	NA
112	10	19	F	Filler	133	7	the	10	333.0	NA
112	10	19	F	Filler	133	7	decision.	11	333.0	NA
112	10	19	F	Question	133	7	NA	NA	2602.0	1
113	10	19	F	Filler	116	6	As	1	361.0	NA
113	10	19	F	Filler	116	6	the	2	534.0	NA
113	10	19	F	Filler	116	6	survivors	3	384.0	NA
113	10	19	F	Filler	116	6	were	4	333.0	NA
113	10	19	F	Filler	116	6	embracing	5	333.0	NA
113	10	19	F	Filler	116	6	the	6	352.0	NA
113	10	19	F	Filler	116	6	firefighter	7	382.0	NA
113	10	19	F	Filler	116	6	coughed	8	501.0	NA
113	10	19	F	Filler	116	6	violently.	9	433.0	NA
113	10	19	F	Question	116	6	NA	NA	1400.0	1
114	10	19	F	swets	2	2	The	1	361.0	NA
114	10	19	F	swets	2	2	sister	2	501.0	NA
114	10	19	F	swets	2	2	of	3	266.0	NA
114	10	19	F	swets	2	2	the	4	201.0	NA
114	10	19	F	swets	2	2	fireman	5	333.0	NA
114	10	19	F	swets	2	2	who	6	334.0	NA
114	10	19	F	swets	2	2	criticized	7	316.0	NA
114	10	19	F	swets	2	2	himself	8	365.0	NA
114	10	19	F	swets	2	2	far	9	334.0	NA
114	10	19	F	swets	2	2	too	10	317.0	NA
114	10	19	F	swets	2	2	often	11	267.0	NA
114	10	19	F	swets	2	2	was	12	335.0	NA
114	10	19	F	swets	2	2	painting	13	333.0	NA
114	10	19	F	swets	2	2	the	14	317.0	NA
114	10	19	F	swets	2	2	bedroom.	15	332.0	NA
114	10	19	F	Question	2	2	NA	NA	1300.0	1
115	10	19	F	Filler	144	7	The	1	294.0	NA
115	10	19	F	Filler	144	7	apple	2	367.0	NA
115	10	19	F	Filler	144	7	and	3	301.0	NA
115	10	19	F	Filler	144	7	potato	4	299.0	NA
115	10	19	F	Filler	144	7	went	5	302.0	NA
115	10	19	F	Filler	144	7	rotten	6	332.0	NA
115	10	19	F	Filler	144	7	after	7	301.0	NA
115	10	19	F	Filler	144	7	a	8	350.0	NA
115	10	19	F	Filler	144	7	week.	9	300.0	NA
115	10	19	F	Question	144	7	NA	NA	1299.0	1
116	10	19	F	Filler	137	7	When	1	411.0	NA
116	10	19	F	Filler	137	7	Leslie	2	384.0	NA
116	10	19	F	Filler	137	7	was	3	334.0	NA
116	10	19	F	Filler	137	7	sneezing	4	349.0	NA
116	10	19	F	Filler	137	7	her	5	334.0	NA
116	10	19	F	Filler	137	7	friends	6	300.0	NA
116	10	19	F	Filler	137	7	laughed	7	417.0	NA
116	10	19	F	Filler	137	7	at	8	401.0	NA
116	10	19	F	Filler	137	7	her.	9	967.0	NA
116	10	19	F	Question	137	7	NA	NA	1400.0	1
117	10	19	F	swets	30	3	The	1	345.0	NA
117	10	19	F	swets	30	3	bodyguard	2	517.0	NA
117	10	19	F	swets	30	3	of	3	367.0	NA
117	10	19	F	swets	30	3	the	4	251.0	NA
117	10	19	F	swets	30	3	baroness	5	284.0	NA
117	10	19	F	swets	30	3	who	6	1066.0	NA
117	10	19	F	swets	30	3	prepared	7	1967.0	NA
117	10	19	F	swets	30	3	himself	8	433.0	NA
117	10	19	F	swets	30	3	very	9	467.0	NA
117	10	19	F	swets	30	3	thoroughly	10	283.0	NA
117	10	19	F	swets	30	3	came	11	368.0	NA
117	10	19	F	swets	30	3	from	12	266.0	NA
117	10	19	F	swets	30	3	the	13	350.0	NA
117	10	19	F	swets	30	3	south.	14	333.0	NA
117	10	19	F	Question	30	3	NA	NA	1402.0	1
118	10	19	F	Filler	86	5	The	1	579.0	NA
118	10	19	F	Filler	86	5	family's	2	416.0	NA
118	10	19	F	Filler	86	5	television	3	801.0	NA
118	10	19	F	Filler	86	5	stopped	4	432.0	NA
118	10	19	F	Filler	86	5	working	5	368.0	NA
118	10	19	F	Filler	86	5	two	6	349.0	NA
118	10	19	F	Filler	86	5	days	7	402.0	NA
118	10	19	F	Filler	86	5	after	8	366.0	NA
118	10	19	F	Filler	86	5	the	9	433.0	NA
118	10	19	F	Filler	86	5	warranty	10	367.0	NA
118	10	19	F	Filler	86	5	expired.	11	400.0	NA
118	10	19	F	Question	86	5	NA	NA	1250.0	1
119	10	19	F	Filler	77	5	Outside	1	194.0	NA
119	10	19	F	Filler	77	5	the	2	685.0	NA
119	10	19	F	Filler	77	5	courthouse	3	333.0	NA
119	10	19	F	Filler	77	5	the	4	435.0	NA
119	10	19	F	Filler	77	5	committee	5	665.0	NA
119	10	19	F	Filler	77	5	awarded	6	1001.0	NA
119	10	19	F	Filler	77	5	a	7	417.0	NA
119	10	19	F	Filler	77	5	lifetime	8	533.0	NA
119	10	19	F	Filler	77	5	achievement	9	867.0	NA
119	10	19	F	Filler	77	5	prize	10	335.0	NA
119	10	19	F	Filler	77	5	to	11	349.0	NA
119	10	19	F	Filler	77	5	the	12	266.0	NA
119	10	19	F	Filler	77	5	creator	13	668.0	NA
119	10	19	F	Filler	77	5	of	14	432.0	NA
119	10	19	F	Filler	77	5	the	15	334.0	NA
119	10	19	F	Filler	77	5	sculpture.	16	382.0	NA
119	10	19	F	Question	77	5	NA	NA	1251.0	1
120	10	19	F	swets	4	1	The	1	3328.0	NA
120	10	19	F	swets	4	1	mother	2	469.0	NA
120	10	19	F	swets	4	1	of	3	366.0	NA
120	10	19	F	swets	4	1	the	4	284.0	NA
120	10	19	F	swets	4	1	bride	5	300.0	NA
120	10	19	F	swets	4	1	who	6	317.0	NA
120	10	19	F	swets	4	1	embarrassed	7	633.0	NA
120	10	19	F	swets	4	1	herself	8	400.0	NA
120	10	19	F	swets	4	1	at	9	399.0	NA
120	10	19	F	swets	4	1	the	10	300.0	NA
120	10	19	F	swets	4	1	reception	11	300.0	NA
120	10	19	F	swets	4	1	was	12	368.0	NA
120	10	19	F	swets	4	1	complaining	13	469.0	NA
120	10	19	F	swets	4	1	to	14	348.0	NA
120	10	19	F	swets	4	1	the	15	335.0	NA
120	10	19	F	swets	4	1	priest.	16	333.0	NA
120	10	19	F	Question	4	1	NA	NA	1250.0	1
121	10	19	F	Filler	132	7	While	1	345.0	NA
121	10	19	F	Filler	132	7	John	2	367.0	NA
121	10	19	F	Filler	132	7	and	3	333.0	NA
121	10	19	F	Filler	132	7	Mary	4	368.0	NA
121	10	19	F	Filler	132	7	kissed	5	665.0	NA
121	10	19	F	Filler	132	7	their	6	435.0	NA
121	10	19	F	Filler	132	7	daughter	7	582.0	NA
121	10	19	F	Filler	132	7	fell	8	467.0	NA
121	10	19	F	Filler	132	7	asleep.	9	467.0	NA
121	10	19	F	Question	132	7	NA	NA	2400.0	1
122	10	19	F	Filler	94	5	After	1	362.0	NA
122	10	19	F	Filler	94	5	months	2	434.0	NA
122	10	19	F	Filler	94	5	of	3	333.0	NA
122	10	19	F	Filler	94	5	preparation	4	301.0	NA
122	10	19	F	Filler	94	5	the	5	300.0	NA
122	10	19	F	Filler	94	5	ballerina	6	366.0	NA
122	10	19	F	Filler	94	5	was	7	366.0	NA
122	10	19	F	Filler	94	5	getting	8	335.0	NA
122	10	19	F	Filler	94	5	ready	9	366.0	NA
122	10	19	F	Filler	94	5	for	10	268.0	NA
122	10	19	F	Filler	94	5	opening	11	332.0	NA
122	10	19	F	Filler	94	5	night.	12	333.0	NA
122	10	19	F	Question	94	5	NA	NA	4202.0	1
123	10	19	F	Filler	103	5	The	1	344.0	NA
123	10	19	F	Filler	103	5	desperate	2	367.0	NA
123	10	19	F	Filler	103	5	thief	3	333.0	NA
123	10	19	F	Filler	103	5	ran	4	800.0	NA
123	10	19	F	Filler	103	5	over	5	434.0	NA
123	10	19	F	Filler	103	5	a	6	400.0	NA
123	10	19	F	Filler	103	5	child	7	367.0	NA
123	10	19	F	Filler	103	5	in	8	350.0	NA
123	10	19	F	Filler	103	5	an	9	284.0	NA
123	10	19	F	Filler	103	5	attempt	10	400.0	NA
123	10	19	F	Filler	103	5	to	11	301.0	NA
123	10	19	F	Filler	103	5	dodge	12	267.0	NA
123	10	19	F	Filler	103	5	the	13	315.0	NA
123	10	19	F	Filler	103	5	cops.	14	266.0	NA
123	10	19	F	Question	103	5	NA	NA	1300.0	0
124	10	19	F	swets	13	1	The	1	328.0	NA
124	10	19	F	swets	13	1	great-uncle	2	350.0	NA
124	10	19	F	swets	13	1	of	3	334.0	NA
124	10	19	F	swets	13	1	the	4	282.0	NA
124	10	19	F	swets	13	1	policeman	5	301.0	NA
124	10	19	F	swets	13	1	who	6	416.0	NA
124	10	19	F	swets	13	1	treated	7	368.0	NA
124	10	19	F	swets	13	1	himself	8	367.0	NA
124	10	19	F	swets	13	1	after	9	366.0	NA
124	10	19	F	swets	13	1	the	10	383.0	NA
124	10	19	F	swets	13	1	accident	11	668.0	NA
124	10	19	F	swets	13	1	was	12	499.0	NA
124	10	19	F	swets	13	1	watching	13	334.0	NA
124	10	19	F	swets	13	1	the	14	333.0	NA
124	10	19	F	swets	13	1	news.	15	335.0	NA
124	10	19	F	Question	13	1	NA	NA	1648.0	1
125	10	19	F	Filler	38	4	Despite	1	746.0	NA
125	10	19	F	Filler	38	4	the	2	384.0	NA
125	10	19	F	Filler	38	4	lack	3	932.0	NA
125	10	19	F	Filler	38	4	of	4	433.0	NA
125	10	19	F	Filler	38	4	publicity	5	485.0	NA
125	10	19	F	Filler	38	4	many	6	350.0	NA
125	10	19	F	Filler	38	4	people	7	399.0	NA
125	10	19	F	Filler	38	4	attended	8	301.0	NA
125	10	19	F	Filler	38	4	the	9	283.0	NA
125	10	19	F	Filler	38	4	lecture.	10	283.0	NA
125	10	19	F	Question	38	4	NA	NA	1350.0	1
126	10	19	F	Filler	143	7	The	1	296.0	NA
126	10	19	F	Filler	143	7	lawyer	2	332.0	NA
126	10	19	F	Filler	143	7	and	3	302.0	NA
126	10	19	F	Filler	143	7	defendant	4	300.0	NA
126	10	19	F	Filler	143	7	whispered	5	466.0	NA
126	10	19	F	Filler	143	7	furiously	6	301.0	NA
126	10	19	F	Filler	143	7	during	7	416.0	NA
126	10	19	F	Filler	143	7	the	8	301.0	NA
126	10	19	F	Filler	143	7	recess.	9	333.0	NA
126	10	19	F	Question	143	7	NA	NA	1399.0	1
127	10	19	F	swets	31	1	The	1	328.0	NA
127	10	19	F	swets	31	1	uncle	2	318.0	NA
127	10	19	F	swets	31	1	of	3	332.0	NA
127	10	19	F	swets	31	1	the	4	251.0	NA
127	10	19	F	swets	31	1	milkman	5	432.0	NA
127	10	19	F	swets	31	1	who	6	402.0	NA
127	10	19	F	swets	31	1	had	7	365.0	NA
127	10	19	F	swets	31	1	to	8	400.0	NA
127	10	19	F	swets	31	1	support	9	383.0	NA
127	10	19	F	swets	31	1	himself	10	369.0	NA
127	10	19	F	swets	31	1	with	11	399.0	NA
127	10	19	F	swets	31	1	a	12	368.0	NA
127	10	19	F	swets	31	1	low	13	366.0	NA
127	10	19	F	swets	31	1	income	14	833.0	NA
127	10	19	F	swets	31	1	liked	15	917.0	NA
127	10	19	F	swets	31	1	to	16	485.0	NA
127	10	19	F	swets	31	1	fish.	17	366.0	NA
127	10	19	F	Question	31	1	NA	NA	1950.0	1
128	10	19	F	Filler	138	7	While	1	429.0	NA
128	10	19	F	Filler	138	7	Pedro	2	399.0	NA
128	10	19	F	Filler	138	7	was	3	401.0	NA
128	10	19	F	Filler	138	7	swimming	4	601.0	NA
128	10	19	F	Filler	138	7	the	5	351.0	NA
128	10	19	F	Filler	138	7	lifeguard	6	700.0	NA
128	10	19	F	Filler	138	7	sat	7	934.0	NA
128	10	19	F	Filler	138	7	in	8	399.0	NA
128	10	19	F	Filler	138	7	his	9	401.0	NA
128	10	19	F	Filler	138	7	chair.	10	300.0	NA
128	10	19	F	Question	138	7	NA	NA	1183.0	1
129	10	19	F	Filler	135	7	While	1	378.0	NA
129	10	19	F	Filler	135	7	Donna	2	600.0	NA
129	10	19	F	Filler	135	7	and	3	401.0	NA
129	10	19	F	Filler	135	7	Scott	4	733.0	NA
129	10	19	F	Filler	135	7	met	5	433.0	NA
129	10	19	F	Filler	135	7	their	6	367.0	NA
129	10	19	F	Filler	135	7	agent	7	368.0	NA
129	10	19	F	Filler	135	7	some	8	399.0	NA
129	10	19	F	Filler	135	7	friends	9	334.0	NA
129	10	19	F	Filler	135	7	called	10	300.0	NA
129	10	19	F	Filler	135	7	and	11	299.0	NA
129	10	19	F	Filler	135	7	left	12	335.0	NA
129	10	19	F	Filler	135	7	a	13	316.0	NA
129	10	19	F	Filler	135	7	message.	14	268.0	NA
129	10	19	F	Question	135	7	NA	NA	1500.0	1
130	10	19	F	Filler	109	6	While	1	645.0	NA
130	10	19	F	Filler	109	6	the	2	601.0	NA
130	10	19	F	Filler	109	6	farmer	3	734.0	NA
130	10	19	F	Filler	109	6	steered	4	432.0	NA
130	10	19	F	Filler	109	6	the	5	601.0	NA
130	10	19	F	Filler	109	6	truck	6	401.0	NA
130	10	19	F	Filler	109	6	the	7	333.0	NA
130	10	19	F	Filler	109	6	tractor	8	400.0	NA
130	10	19	F	Filler	109	6	pulled	9	499.0	NA
130	10	19	F	Filler	109	6	the	10	368.0	NA
130	10	19	F	Filler	109	6	plough.	11	750.0	NA
130	10	19	F	Question	109	6	NA	NA	2451.0	1
131	10	19	F	Filler	141	7	The	1	411.0	NA
131	10	19	F	Filler	141	7	nurse	2	401.0	NA
131	10	19	F	Filler	141	7	and	3	467.0	NA
131	10	19	F	Filler	141	7	custodian	4	1250.0	NA
131	10	19	F	Filler	141	7	chatted	5	4067.0	NA
131	10	19	F	Filler	141	7	during	6	451.0	NA
131	10	19	F	Filler	141	7	their	7	334.0	NA
131	10	19	F	Filler	141	7	break.	8	349.0	NA
131	10	19	F	Question	141	7	NA	NA	1250.0	1
132	10	19	F	Filler	70	4	The	1	362.0	NA
132	10	19	F	Filler	70	4	warden	2	400.0	NA
132	10	19	F	Filler	70	4	was	3	4069.0	NA
132	10	19	F	Filler	70	4	dissatisfied	4	432.0	NA
132	10	19	F	Filler	70	4	with	5	567.0	NA
132	10	19	F	Filler	70	4	the	6	384.0	NA
132	10	19	F	Filler	70	4	decision	7	369.0	NA
132	10	19	F	Filler	70	4	of	8	665.0	NA
132	10	19	F	Filler	70	4	the	9	351.0	NA
132	10	19	F	Filler	70	4	parole	10	333.0	NA
132	10	19	F	Filler	70	4	committee	11	332.0	NA
132	10	19	F	Filler	70	4	to	12	385.0	NA
132	10	19	F	Filler	70	4	pardon	13	266.0	NA
132	10	19	F	Filler	70	4	the	14	316.0	NA
132	10	19	F	Filler	70	4	prisoner.	15	267.0	NA
132	10	19	F	Question	70	4	NA	NA	2050.0	1
133	10	19	F	Filler	97	5	The	1	345.0	NA
133	10	19	F	Filler	97	5	tall	2	368.0	NA
133	10	19	F	Filler	97	5	man	3	365.0	NA
133	10	19	F	Filler	97	5	laughed	4	301.0	NA
133	10	19	F	Filler	97	5	at	5	334.0	NA
133	10	19	F	Filler	97	5	the	6	268.0	NA
133	10	19	F	Filler	97	5	clumsy	7	299.0	NA
133	10	19	F	Filler	97	5	child	8	399.0	NA
133	10	19	F	Filler	97	5	who	9	301.0	NA
133	10	19	F	Filler	97	5	spilled	10	366.0	NA
133	10	19	F	Filler	97	5	the	11	367.0	NA
133	10	19	F	Filler	97	5	milk	12	400.0	NA
133	10	19	F	Filler	97	5	on	13	334.0	NA
133	10	19	F	Filler	97	5	himself.	14	366.0	NA
133	10	19	F	Question	97	5	NA	NA	1051.0	1
134	10	19	F	Filler	98	5	The	1	462.0	NA
134	10	19	F	Filler	98	5	husband	2	349.0	NA
134	10	19	F	Filler	98	5	of	3	301.0	NA
134	10	19	F	Filler	98	5	the	4	250.0	NA
134	10	19	F	Filler	98	5	bestselling	5	349.0	NA
134	10	19	F	Filler	98	5	novelist	6	567.0	NA
134	10	19	F	Filler	98	5	was	7	335.0	NA
134	10	19	F	Filler	98	5	into	8	298.0	NA
134	10	19	F	Filler	98	5	collecting	9	302.0	NA
134	10	19	F	Filler	98	5	antiques.	10	349.0	NA
134	10	19	F	Question	98	5	NA	NA	2099.0	1
135	10	19	F	swets	25	1	The	1	428.0	NA
135	10	19	F	swets	25	1	grandmother	2	568.0	NA
135	10	19	F	swets	25	1	of	3	465.0	NA
135	10	19	F	swets	25	1	the	4	334.0	NA
135	10	19	F	swets	25	1	stewardess	5	333.0	NA
135	10	19	F	swets	25	1	who	6	551.0	NA
135	10	19	F	swets	25	1	treated	7	1067.0	NA
135	10	19	F	swets	25	1	herself	8	367.0	NA
135	10	19	F	swets	25	1	to	9	366.0	NA
135	10	19	F	swets	25	1	an	10	301.0	NA
135	10	19	F	swets	25	1	ice-cream	11	449.0	NA
135	10	19	F	swets	25	1	cone	12	302.0	NA
135	10	19	F	swets	25	1	was	13	398.0	NA
135	10	19	F	swets	25	1	waiting	14	235.0	NA
135	10	19	F	swets	25	1	at	15	333.0	NA
135	10	19	F	swets	25	1	home.	16	333.0	NA
135	10	19	F	Question	25	1	NA	NA	3300.0	1
136	10	19	F	Filler	83	5	The	1	394.0	NA
136	10	19	F	Filler	83	5	passengers	2	334.0	NA
136	10	19	F	Filler	83	5	screamed	3	334.0	NA
136	10	19	F	Filler	83	5	as	4	334.0	NA
136	10	19	F	Filler	83	5	the	5	334.0	NA
136	10	19	F	Filler	83	5	plane	6	281.0	NA
136	10	19	F	Filler	83	5	dipped	7	302.0	NA
136	10	19	F	Filler	83	5	and	8	300.0	NA
136	10	19	F	Filler	83	5	the	9	350.0	NA
136	10	19	F	Filler	83	5	pilots	10	300.0	NA
136	10	19	F	Filler	83	5	said	11	366.0	NA
136	10	19	F	Filler	83	5	their	12	234.0	NA
136	10	19	F	Filler	83	5	prayers	13	399.0	NA
136	10	19	F	Filler	83	5	quietly.	14	400.0	NA
136	10	19	F	Question	83	5	NA	NA	1101.0	1
137	10	19	F	Filler	61	4	The	1	162.0	NA
137	10	19	F	Filler	61	4	lemon	2	601.0	NA
137	10	19	F	Filler	61	4	squirted	3	300.0	NA
137	10	19	F	Filler	61	4	into	4	366.0	NA
137	10	19	F	Filler	61	4	the	5	284.0	NA
137	10	19	F	Filler	61	4	debutante's	6	350.0	NA
137	10	19	F	Filler	61	4	eye	7	600.0	NA
137	10	19	F	Filler	61	4	as	8	434.0	NA
137	10	19	F	Filler	61	4	she	9	367.0	NA
137	10	19	F	Filler	61	4	tried	10	299.0	NA
137	10	19	F	Filler	61	4	to	11	301.0	NA
137	10	19	F	Filler	61	4	impress	12	366.0	NA
137	10	19	F	Filler	61	4	her	13	334.0	NA
137	10	19	F	Filler	61	4	mother's	14	316.0	NA
137	10	19	F	Filler	61	4	society	15	400.0	NA
137	10	19	F	Filler	61	4	friends.	16	368.0	NA
137	10	19	F	Question	61	4	NA	NA	3700.0	1
138	10	19	F	swets	1	1	The	1	546.0	NA
138	10	19	F	swets	1	1	sister	2	432.0	NA
138	10	19	F	swets	1	1	of	3	368.0	NA
138	10	19	F	swets	1	1	the	4	234.0	NA
138	10	19	F	swets	1	1	actress	5	266.0	NA
138	10	19	F	swets	1	1	who	6	299.0	NA
138	10	19	F	swets	1	1	called	7	268.0	NA
138	10	19	F	swets	1	1	attention	8	300.0	NA
138	10	19	F	swets	1	1	to	9	300.0	NA
138	10	19	F	swets	1	1	herself	10	265.0	NA
138	10	19	F	swets	1	1	on	11	300.0	NA
138	10	19	F	swets	1	1	the	12	252.0	NA
138	10	19	F	swets	1	1	balcony	13	250.0	NA
138	10	19	F	swets	1	1	was	14	366.0	NA
138	10	19	F	swets	1	1	under	15	350.0	NA
138	10	19	F	swets	1	1	investigation.	16	301.0	NA
138	10	19	F	Question	1	1	NA	NA	2100.0	1
139	10	19	F	Filler	62	4	After	1	361.0	NA
139	10	19	F	Filler	62	4	much	2	350.0	NA
139	10	19	F	Filler	62	4	deliberation	3	300.0	NA
139	10	19	F	Filler	62	4	the	4	467.0	NA
139	10	19	F	Filler	62	4	jury	5	300.0	NA
139	10	19	F	Filler	62	4	found	6	349.0	NA
139	10	19	F	Filler	62	4	the	7	268.0	NA
139	10	19	F	Filler	62	4	defendant	8	267.0	NA
139	10	19	F	Filler	62	4	not	9	333.0	NA
139	10	19	F	Filler	62	4	guilty.	10	300.0	NA
139	10	19	F	Question	62	4	NA	NA	2752.0	1
140	10	19	F	swets	5	2	The	1	430.0	NA
140	10	19	F	swets	5	2	aunt	2	449.0	NA
140	10	19	F	swets	5	2	of	3	434.0	NA
140	10	19	F	swets	5	2	the	4	385.0	NA
140	10	19	F	swets	5	2	bishop	5	348.0	NA
140	10	19	F	swets	5	2	who	6	917.0	NA
140	10	19	F	swets	5	2	injured	7	549.0	NA
140	10	19	F	swets	5	2	himself	8	434.0	NA
140	10	19	F	swets	5	2	last	9	299.0	NA
140	10	19	F	swets	5	2	summer	10	301.0	NA
140	10	19	F	swets	5	2	was	11	234.0	NA
140	10	19	F	swets	5	2	concerned	12	234.0	NA
140	10	19	F	swets	5	2	about	13	349.0	NA
140	10	19	F	swets	5	2	the	14	367.0	NA
140	10	19	F	swets	5	2	infection.	15	267.0	NA
140	10	19	F	Question	5	2	NA	NA	1049.0	1
141	10	19	F	Filler	96	5	The	1	729.0	NA
141	10	19	F	Filler	96	5	evil	2	434.0	NA
141	10	19	F	Filler	96	5	man	3	366.0	NA
141	10	19	F	Filler	96	5	watched	4	418.0	NA
141	10	19	F	Filler	96	5	the	5	467.0	NA
141	10	19	F	Filler	96	5	doorway	6	366.0	NA
141	10	19	F	Filler	96	5	of	7	301.0	NA
141	10	19	F	Filler	96	5	the	8	267.0	NA
141	10	19	F	Filler	96	5	bar	9	249.0	NA
141	10	19	F	Filler	96	5	every	10	233.0	NA
141	10	19	F	Filler	96	5	Friday	11	350.0	NA
141	10	19	F	Filler	96	5	night.	12	334.0	NA
141	10	19	F	Question	96	5	NA	NA	899.0	1
142	10	19	F	Filler	124	6	The	1	362.0	NA
142	10	19	F	Filler	124	6	mothers	2	365.0	NA
142	10	19	F	Filler	124	6	and	3	333.0	NA
142	10	19	F	Filler	124	6	teachers	4	266.0	NA
142	10	19	F	Filler	124	6	played	5	336.0	NA
142	10	19	F	Filler	124	6	tennis	6	299.0	NA
142	10	19	F	Filler	124	6	after	7	367.0	NA
142	10	19	F	Filler	124	6	the	8	367.0	NA
142	10	19	F	Filler	124	6	kids	9	400.0	NA
142	10	19	F	Filler	124	6	left.	10	366.0	NA
142	10	19	F	Question	124	6	NA	NA	1451.0	1
143	10	19	F	Filler	71	4	The	1	312.0	NA
143	10	19	F	Filler	71	4	elderly	2	467.0	NA
143	10	19	F	Filler	71	4	woman	3	400.0	NA
143	10	19	F	Filler	71	4	locked	4	566.0	NA
143	10	19	F	Filler	71	4	and	5	399.0	NA
143	10	19	F	Filler	71	4	bolted	6	468.0	NA
143	10	19	F	Filler	71	4	her	7	416.0	NA
143	10	19	F	Filler	71	4	door	8	368.0	NA
143	10	19	F	Filler	71	4	every	9	466.0	NA
143	10	19	F	Filler	71	4	night	10	634.0	NA
143	10	19	F	Filler	71	4	after	11	433.0	NA
143	10	19	F	Filler	71	4	the	12	668.0	NA
143	10	19	F	Filler	71	4	robbers	13	400.0	NA
143	10	19	F	Filler	71	4	took	14	398.0	NA
143	10	19	F	Filler	71	4	her	15	401.0	NA
143	10	19	F	Filler	71	4	best	16	466.0	NA
143	10	19	F	Filler	71	4	pearls.	17	467.0	NA
143	10	19	F	Question	71	4	NA	NA	1600.0	1
