trial	subj	age	gender	stimulustype	item	condition	word	position	rt	correct
0	12	21	F	Filler	129	7	While	1	544.0	NA
0	12	21	F	Filler	129	7	Scott	2	300.0	NA
0	12	21	F	Filler	129	7	vacuumed	3	298.0	NA
0	12	21	F	Filler	129	7	the	4	353.0	NA
0	12	21	F	Filler	129	7	carpet	5	315.0	NA
0	12	21	F	Filler	129	7	the	6	317.0	NA
0	12	21	F	Filler	129	7	drapes	7	318.0	NA
0	12	21	F	Filler	129	7	flapped	8	350.0	NA
0	12	21	F	Filler	129	7	in	9	350.0	NA
0	12	21	F	Filler	129	7	the	10	450.0	NA
0	12	21	F	Filler	129	7	breeze.	11	216.0	NA
0	12	21	F	Question	129	7	NA	NA	2768.0	1
1	12	21	F	swets	34	3	The	1	410.0	NA
1	12	21	F	swets	34	3	waiter	2	334.0	NA
1	12	21	F	swets	34	3	of	3	317.0	NA
1	12	21	F	swets	34	3	the	4	234.0	NA
1	12	21	F	swets	34	3	woman	5	349.0	NA
1	12	21	F	swets	34	3	who	6	351.0	NA
1	12	21	F	swets	34	3	considered	7	417.0	NA
1	12	21	F	swets	34	3	himself	8	366.0	NA
1	12	21	F	swets	34	3	a	9	1017.0	NA
1	12	21	F	swets	34	3	natural	10	550.0	NA
1	12	21	F	swets	34	3	beauty	11	634.0	NA
1	12	21	F	swets	34	3	spilled	12	433.0	NA
1	12	21	F	swets	34	3	the	13	300.0	NA
1	12	21	F	swets	34	3	drinks.	14	385.0	NA
1	12	21	F	Question	34	3	NA	NA	4299.0	1
2	12	21	F	Filler	48	4	The	1	377.0	NA
2	12	21	F	Filler	48	4	police	2	284.0	NA
2	12	21	F	Filler	48	4	arrested	3	299.0	NA
2	12	21	F	Filler	48	4	the	4	351.0	NA
2	12	21	F	Filler	48	4	sister	5	316.0	NA
2	12	21	F	Filler	48	4	of	6	350.0	NA
2	12	21	F	Filler	48	4	the	7	367.0	NA
2	12	21	F	Filler	48	4	handyman	8	317.0	NA
2	12	21	F	Filler	48	4	after	9	584.0	NA
2	12	21	F	Filler	48	4	she	10	368.0	NA
2	12	21	F	Filler	48	4	recently	11	449.0	NA
2	12	21	F	Filler	48	4	gave	12	500.0	NA
2	12	21	F	Filler	48	4	birth	13	400.0	NA
2	12	21	F	Filler	48	4	to	14	368.0	NA
2	12	21	F	Filler	48	4	twins.	15	482.0	NA
2	12	21	F	Question	48	4	NA	NA	1902.0	1
3	12	21	F	Filler	92	5	The	1	511.0	NA
3	12	21	F	Filler	92	5	personal	2	334.0	NA
3	12	21	F	Filler	92	5	trainer	3	301.0	NA
3	12	21	F	Filler	92	5	was	4	332.0	NA
3	12	21	F	Filler	92	5	popular	5	401.0	NA
3	12	21	F	Filler	92	5	among	6	432.0	NA
3	12	21	F	Filler	92	5	athletes	7	402.0	NA
3	12	21	F	Filler	92	5	after	8	549.0	NA
3	12	21	F	Filler	92	5	he	9	367.0	NA
3	12	21	F	Filler	92	5	helped	10	383.0	NA
3	12	21	F	Filler	92	5	the	11	484.0	NA
3	12	21	F	Filler	92	5	bodybuilder	12	333.0	NA
3	12	21	F	Filler	92	5	win	13	383.0	NA
3	12	21	F	Filler	92	5	the	14	383.0	NA
3	12	21	F	Filler	92	5	competition.	15	400.0	NA
3	12	21	F	Question	92	5	NA	NA	8520.0	1
4	12	21	F	swets	9	2	The	1	462.0	NA
4	12	21	F	swets	9	2	father	2	300.0	NA
4	12	21	F	swets	9	2	of	3	284.0	NA
4	12	21	F	swets	9	2	the	4	349.0	NA
4	12	21	F	swets	9	2	schoolgirl	5	300.0	NA
4	12	21	F	swets	9	2	who	6	334.0	NA
4	12	21	F	swets	9	2	burned	7	399.0	NA
4	12	21	F	swets	9	2	herself	8	218.0	NA
4	12	21	F	swets	9	2	the	9	417.0	NA
4	12	21	F	swets	9	2	other	10	482.0	NA
4	12	21	F	swets	9	2	day	11	334.0	NA
4	12	21	F	swets	9	2	was	12	350.0	NA
4	12	21	F	swets	9	2	usually	13	383.0	NA
4	12	21	F	swets	9	2	very	14	701.0	NA
4	12	21	F	swets	9	2	careful.	15	482.0	NA
4	12	21	F	Question	9	2	NA	NA	1368.0	0
5	12	21	F	Filler	113	6	While	1	128.0	NA
5	12	21	F	Filler	113	6	Noah	2	435.0	NA
5	12	21	F	Filler	113	6	was	3	284.0	NA
5	12	21	F	Filler	113	6	waking	4	367.0	NA
5	12	21	F	Filler	113	6	up	5	750.0	NA
5	12	21	F	Filler	113	6	the	6	834.0	NA
5	12	21	F	Filler	113	6	man	7	400.0	NA
5	12	21	F	Filler	113	6	the	8	350.0	NA
5	12	21	F	Filler	113	6	neighbor	9	2883.0	NA
5	12	21	F	Filler	113	6	coughed	10	801.0	NA
5	12	21	F	Filler	113	6	loudly.	11	450.0	NA
5	12	21	F	Question	113	6	NA	NA	2234.0	1
6	12	21	F	swets	5	1	The	1	363.0	NA
6	12	21	F	swets	5	1	uncle	2	431.0	NA
6	12	21	F	swets	5	1	of	3	335.0	NA
6	12	21	F	swets	5	1	the	4	384.0	NA
6	12	21	F	swets	5	1	bishop	5	584.0	NA
6	12	21	F	swets	5	1	who	6	416.0	NA
6	12	21	F	swets	5	1	injured	7	483.0	NA
6	12	21	F	swets	5	1	himself	8	418.0	NA
6	12	21	F	swets	5	1	last	9	465.0	NA
6	12	21	F	swets	5	1	summer	10	484.0	NA
6	12	21	F	swets	5	1	was	11	402.0	NA
6	12	21	F	swets	5	1	concerned	12	315.0	NA
6	12	21	F	swets	5	1	about	13	335.0	NA
6	12	21	F	swets	5	1	the	14	716.0	NA
6	12	21	F	swets	5	1	infection.	15	1217.0	NA
6	12	21	F	Question	5	1	NA	NA	5267.0	1
7	12	21	F	Filler	89	5	Jim	1	429.0	NA
7	12	21	F	Filler	89	5	watered	2	349.0	NA
7	12	21	F	Filler	89	5	the	3	417.0	NA
7	12	21	F	Filler	89	5	tropical	4	333.0	NA
7	12	21	F	Filler	89	5	plants	5	384.0	NA
7	12	21	F	Filler	89	5	of	6	434.0	NA
7	12	21	F	Filler	89	5	his	7	350.0	NA
7	12	21	F	Filler	89	5	neighbor	8	366.0	NA
7	12	21	F	Filler	89	5	because	9	768.0	NA
7	12	21	F	Filler	89	5	she	10	416.0	NA
7	12	21	F	Filler	89	5	had	11	350.0	NA
7	12	21	F	Filler	89	5	gone	12	784.0	NA
7	12	21	F	Filler	89	5	out	13	349.0	NA
7	12	21	F	Filler	89	5	of	14	351.0	NA
7	12	21	F	Filler	89	5	town	15	368.0	NA
7	12	21	F	Filler	89	5	for	16	483.0	NA
7	12	21	F	Filler	89	5	a	17	367.0	NA
7	12	21	F	Filler	89	5	few	18	449.0	NA
7	12	21	F	Filler	89	5	days.	19	434.0	NA
7	12	21	F	Question	89	5	NA	NA	1600.0	1
8	12	21	F	swets	3	2	The	1	1161.0	NA
8	12	21	F	swets	3	2	secretary	2	368.0	NA
8	12	21	F	swets	3	2	of	3	366.0	NA
8	12	21	F	swets	3	2	the	4	384.0	NA
8	12	21	F	swets	3	2	salesman	5	349.0	NA
8	12	21	F	swets	3	2	who	6	718.0	NA
8	12	21	F	swets	3	2	amused	7	350.0	NA
8	12	21	F	swets	3	2	himself	8	434.0	NA
8	12	21	F	swets	3	2	quite	9	451.0	NA
8	12	21	F	swets	3	2	a	10	365.0	NA
8	12	21	F	swets	3	2	bit	11	434.0	NA
8	12	21	F	swets	3	2	was	12	318.0	NA
8	12	21	F	swets	3	2	writing	13	366.0	NA
8	12	21	F	swets	3	2	a	14	399.0	NA
8	12	21	F	swets	3	2	letter	15	434.0	NA
8	12	21	F	swets	3	2	to	16	583.0	NA
8	12	21	F	swets	3	2	the	17	385.0	NA
8	12	21	F	swets	3	2	editor.	18	550.0	NA
8	12	21	F	Question	3	2	NA	NA	4000.0	1
9	12	21	F	Filler	77	5	Outside	1	545.0	NA
9	12	21	F	Filler	77	5	the	2	316.0	NA
9	12	21	F	Filler	77	5	courthouse	3	350.0	NA
9	12	21	F	Filler	77	5	the	4	417.0	NA
9	12	21	F	Filler	77	5	committee	5	350.0	NA
9	12	21	F	Filler	77	5	awarded	6	300.0	NA
9	12	21	F	Filler	77	5	a	7	351.0	NA
9	12	21	F	Filler	77	5	lifetime	8	399.0	NA
9	12	21	F	Filler	77	5	achievement	9	317.0	NA
9	12	21	F	Filler	77	5	prize	10	485.0	NA
9	12	21	F	Filler	77	5	to	11	398.0	NA
9	12	21	F	Filler	77	5	the	12	350.0	NA
9	12	21	F	Filler	77	5	creator	13	335.0	NA
9	12	21	F	Filler	77	5	of	14	383.0	NA
9	12	21	F	Filler	77	5	the	15	350.0	NA
9	12	21	F	Filler	77	5	sculpture.	16	716.0	NA
9	12	21	F	Question	77	5	NA	NA	3185.0	1
10	12	21	F	swets	32	1	The	1	378.0	NA
10	12	21	F	swets	32	1	niece	2	301.0	NA
10	12	21	F	swets	32	1	of	3	350.0	NA
10	12	21	F	swets	32	1	the	4	318.0	NA
10	12	21	F	swets	32	1	duchess	5	415.0	NA
10	12	21	F	swets	32	1	who	6	368.0	NA
10	12	21	F	swets	32	1	looked	7	832.0	NA
10	12	21	F	swets	32	1	at	8	750.0	NA
10	12	21	F	swets	32	1	herself	9	418.0	NA
10	12	21	F	swets	32	1	in	10	400.0	NA
10	12	21	F	swets	32	1	the	11	367.0	NA
10	12	21	F	swets	32	1	mirror	12	450.0	NA
10	12	21	F	swets	32	1	wore	13	350.0	NA
10	12	21	F	swets	32	1	a	14	334.0	NA
10	12	21	F	swets	32	1	blue	15	366.0	NA
10	12	21	F	swets	32	1	shirt.	16	399.0	NA
10	12	21	F	Question	32	1	NA	NA	6035.0	1
11	12	21	F	Filler	102	5	The	1	112.0	NA
11	12	21	F	Filler	102	5	old	2	450.0	NA
11	12	21	F	Filler	102	5	man	3	351.0	NA
11	12	21	F	Filler	102	5	appeared	4	316.0	NA
11	12	21	F	Filler	102	5	to	5	283.0	NA
11	12	21	F	Filler	102	5	be	6	316.0	NA
11	12	21	F	Filler	102	5	upset	7	250.0	NA
11	12	21	F	Filler	102	5	by	8	351.0	NA
11	12	21	F	Filler	102	5	the	9	301.0	NA
11	12	21	F	Filler	102	5	teenager's	10	582.0	NA
11	12	21	F	Filler	102	5	ignorant	11	501.0	NA
11	12	21	F	Filler	102	5	remark.	12	468.0	NA
11	12	21	F	Question	102	5	NA	NA	1700.0	1
12	12	21	F	Filler	120	6	Sarah	1	312.0	NA
12	12	21	F	Filler	120	6	won't	2	367.0	NA
12	12	21	F	Filler	120	6	reveal	3	367.0	NA
12	12	21	F	Filler	120	6	which	4	350.0	NA
12	12	21	F	Filler	120	6	race	5	300.0	NA
12	12	21	F	Filler	120	6	she	6	365.0	NA
12	12	21	F	Filler	120	6	won	7	334.0	NA
12	12	21	F	Filler	120	6	without	8	484.0	NA
12	12	21	F	Filler	120	6	entering	9	367.0	NA
12	12	21	F	Filler	120	6	the	10	433.0	NA
12	12	21	F	Filler	120	6	competition	11	551.0	NA
12	12	21	F	Filler	120	6	for	12	515.0	NA
12	12	21	F	Filler	120	6	officially.	13	652.0	NA
12	12	21	F	Question	120	6	NA	NA	8968.0	1
13	12	21	F	swets	4	3	The	1	412.0	NA
13	12	21	F	swets	4	3	father	2	349.0	NA
13	12	21	F	swets	4	3	of	3	417.0	NA
13	12	21	F	swets	4	3	the	4	367.0	NA
13	12	21	F	swets	4	3	bride	5	450.0	NA
13	12	21	F	swets	4	3	who	6	583.0	NA
13	12	21	F	swets	4	3	embarrassed	7	433.0	NA
13	12	21	F	swets	4	3	himself	8	353.0	NA
13	12	21	F	swets	4	3	at	9	1216.0	NA
13	12	21	F	swets	4	3	the	10	884.0	NA
13	12	21	F	swets	4	3	reception	11	417.0	NA
13	12	21	F	swets	4	3	was	12	782.0	NA
13	12	21	F	swets	4	3	complaining	13	501.0	NA
13	12	21	F	swets	4	3	to	14	351.0	NA
13	12	21	F	swets	4	3	the	15	331.0	NA
13	12	21	F	swets	4	3	priest.	16	601.0	NA
13	12	21	F	Question	4	3	NA	NA	3550.0	1
14	12	21	F	Filler	42	4	After	1	345.0	NA
14	12	21	F	Filler	42	4	dinner	2	399.0	NA
14	12	21	F	Filler	42	4	the	3	368.0	NA
14	12	21	F	Filler	42	4	children	4	434.0	NA
14	12	21	F	Filler	42	4	gathered	5	315.0	NA
14	12	21	F	Filler	42	4	in	6	351.0	NA
14	12	21	F	Filler	42	4	a	7	334.0	NA
14	12	21	F	Filler	42	4	circle	8	400.0	NA
14	12	21	F	Filler	42	4	to	9	416.0	NA
14	12	21	F	Filler	42	4	listen	10	418.0	NA
14	12	21	F	Filler	42	4	to	11	350.0	NA
14	12	21	F	Filler	42	4	their	12	432.0	NA
14	12	21	F	Filler	42	4	grandmother's	13	568.0	NA
14	12	21	F	Filler	42	4	stories	14	450.0	NA
14	12	21	F	Filler	42	4	about	15	483.0	NA
14	12	21	F	Filler	42	4	the	16	434.0	NA
14	12	21	F	Filler	42	4	good	17	384.0	NA
14	12	21	F	Filler	42	4	old	18	400.0	NA
14	12	21	F	Filler	42	4	days.	19	534.0	NA
14	12	21	F	Question	42	4	NA	NA	2533.0	1
15	12	21	F	Filler	100	5	There	1	861.0	NA
15	12	21	F	Filler	100	5	was	2	368.0	NA
15	12	21	F	Filler	100	5	a	3	367.0	NA
15	12	21	F	Filler	100	5	large	4	348.0	NA
15	12	21	F	Filler	100	5	sale	5	368.0	NA
15	12	21	F	Filler	100	5	on	6	385.0	NA
15	12	21	F	Filler	100	5	stationary	7	283.0	NA
15	12	21	F	Filler	100	5	and	8	833.0	NA
15	12	21	F	Filler	100	5	office	9	433.0	NA
15	12	21	F	Filler	100	5	supplies	10	967.0	NA
15	12	21	F	Filler	100	5	at	11	401.0	NA
15	12	21	F	Filler	100	5	the	12	467.0	NA
15	12	21	F	Filler	100	5	student	13	599.0	NA
15	12	21	F	Filler	100	5	bookstore.	14	667.0	NA
15	12	21	F	Question	100	5	NA	NA	6953.0	1
16	12	21	F	Filler	41	4	While	1	594.0	NA
16	12	21	F	Filler	41	4	the	2	351.0	NA
16	12	21	F	Filler	41	4	babysitter	3	532.0	NA
16	12	21	F	Filler	41	4	watched	4	368.0	NA
16	12	21	F	Filler	41	4	soap	5	333.0	NA
16	12	21	F	Filler	41	4	operas	6	599.0	NA
16	12	21	F	Filler	41	4	the	7	368.0	NA
16	12	21	F	Filler	41	4	child	8	317.0	NA
16	12	21	F	Filler	41	4	poured	9	333.0	NA
16	12	21	F	Filler	41	4	honey	10	334.0	NA
16	12	21	F	Filler	41	4	all	11	332.0	NA
16	12	21	F	Filler	41	4	over	12	367.0	NA
16	12	21	F	Filler	41	4	the	13	318.0	NA
16	12	21	F	Filler	41	4	floor.	14	317.0	NA
16	12	21	F	Question	41	4	NA	NA	1167.0	1
17	12	21	F	Filler	64	4	Because	1	395.0	NA
17	12	21	F	Filler	64	4	a	2	317.0	NA
17	12	21	F	Filler	64	4	fire	3	315.0	NA
17	12	21	F	Filler	64	4	alarm	4	334.0	NA
17	12	21	F	Filler	64	4	interrupted	5	334.0	NA
17	12	21	F	Filler	64	4	the	6	367.0	NA
17	12	21	F	Filler	64	4	exam	7	350.0	NA
17	12	21	F	Filler	64	4	the	8	383.0	NA
17	12	21	F	Filler	64	4	scores	9	351.0	NA
17	12	21	F	Filler	64	4	were	10	383.0	NA
17	12	21	F	Filler	64	4	disqualified.	11	633.0	NA
17	12	21	F	Question	64	4	NA	NA	4368.0	1
18	12	21	F	Filler	91	5	The	1	345.0	NA
18	12	21	F	Filler	91	5	workman	2	366.0	NA
18	12	21	F	Filler	91	5	dropped	3	383.0	NA
18	12	21	F	Filler	91	5	the	4	351.0	NA
18	12	21	F	Filler	91	5	assistant	5	433.0	NA
18	12	21	F	Filler	91	5	who	6	451.0	NA
18	12	21	F	Filler	91	5	complained	7	601.0	NA
18	12	21	F	Filler	91	5	bitterly	8	483.0	NA
18	12	21	F	Filler	91	5	onto	9	434.0	NA
18	12	21	F	Filler	91	5	a	10	400.0	NA
18	12	21	F	Filler	91	5	lower	11	417.0	NA
18	12	21	F	Filler	91	5	floor.	12	432.0	NA
18	12	21	F	Question	91	5	NA	NA	5301.0	1
19	12	21	F	Filler	127	7	While	1	411.0	NA
19	12	21	F	Filler	127	7	Linda	2	334.0	NA
19	12	21	F	Filler	127	7	wrote	3	333.0	NA
19	12	21	F	Filler	127	7	the	4	302.0	NA
19	12	21	F	Filler	127	7	letter	5	315.0	NA
19	12	21	F	Filler	127	7	arrived	6	351.0	NA
19	12	21	F	Filler	127	7	from	7	550.0	NA
19	12	21	F	Filler	127	7	Chicago.	8	718.0	NA
19	12	21	F	Question	127	7	NA	NA	7968.0	1
20	12	21	F	swets	21	2	The	1	347.0	NA
20	12	21	F	swets	21	2	wife	2	432.0	NA
20	12	21	F	swets	21	2	of	3	368.0	NA
20	12	21	F	swets	21	2	the	4	299.0	NA
20	12	21	F	swets	21	2	janitor	5	284.0	NA
20	12	21	F	swets	21	2	who	6	467.0	NA
20	12	21	F	swets	21	2	educated	7	400.0	NA
20	12	21	F	swets	21	2	himself	8	415.0	NA
20	12	21	F	swets	21	2	at	9	385.0	NA
20	12	21	F	swets	21	2	night	10	398.0	NA
20	12	21	F	swets	21	2	loved	11	419.0	NA
20	12	21	F	swets	21	2	going	12	400.0	NA
20	12	21	F	swets	21	2	to	13	349.0	NA
20	12	21	F	swets	21	2	the	14	334.0	NA
20	12	21	F	swets	21	2	theatre.	15	434.0	NA
20	12	21	F	Question	21	2	NA	NA	2916.0	1
21	12	21	F	Filler	85	5	The	1	446.0	NA
21	12	21	F	Filler	85	5	college	2	299.0	NA
21	12	21	F	Filler	85	5	students	3	334.0	NA
21	12	21	F	Filler	85	5	were	4	317.0	NA
21	12	21	F	Filler	85	5	upset	5	283.0	NA
21	12	21	F	Filler	85	5	that	6	333.0	NA
21	12	21	F	Filler	85	5	they	7	284.0	NA
21	12	21	F	Filler	85	5	had	8	349.0	NA
21	12	21	F	Filler	85	5	an	9	367.0	NA
21	12	21	F	Filler	85	5	exam	10	400.0	NA
21	12	21	F	Filler	85	5	the	11	317.0	NA
21	12	21	F	Filler	85	5	next	12	385.0	NA
21	12	21	F	Filler	85	5	day.	13	383.0	NA
21	12	21	F	Question	85	5	NA	NA	1632.0	1
22	12	21	F	Filler	136	7	While	1	645.0	NA
22	12	21	F	Filler	136	7	Mark	2	367.0	NA
22	12	21	F	Filler	136	7	and	3	283.0	NA
22	12	21	F	Filler	136	7	Jenny	4	234.0	NA
22	12	21	F	Filler	136	7	were	5	382.0	NA
22	12	21	F	Filler	136	7	cuddling	6	286.0	NA
22	12	21	F	Filler	136	7	the	7	382.0	NA
22	12	21	F	Filler	136	7	older	8	617.0	NA
22	12	21	F	Filler	136	7	dogs	9	334.0	NA
22	12	21	F	Filler	136	7	the	10	583.0	NA
22	12	21	F	Filler	136	7	puppies	11	516.0	NA
22	12	21	F	Filler	136	7	nipped	12	351.0	NA
22	12	21	F	Filler	136	7	at	13	534.0	NA
22	12	21	F	Filler	136	7	their	14	398.0	NA
22	12	21	F	Filler	136	7	feet.	15	417.0	NA
22	12	21	F	Question	136	7	NA	NA	1535.0	1
23	12	21	F	Filler	55	4	The	1	362.0	NA
23	12	21	F	Filler	55	4	people	2	300.0	NA
23	12	21	F	Filler	55	4	certainly	3	369.0	NA
23	12	21	F	Filler	55	4	admired	4	366.0	NA
23	12	21	F	Filler	55	4	the	5	349.0	NA
23	12	21	F	Filler	55	4	wife	6	334.0	NA
23	12	21	F	Filler	55	4	of	7	367.0	NA
23	12	21	F	Filler	55	4	the	8	434.0	NA
23	12	21	F	Filler	55	4	janitor	9	483.0	NA
23	12	21	F	Filler	55	4	because	10	800.0	NA
23	12	21	F	Filler	55	4	she	11	418.0	NA
23	12	21	F	Filler	55	4	educated	12	499.0	NA
23	12	21	F	Filler	55	4	herself	13	283.0	NA
23	12	21	F	Filler	55	4	at	14	368.0	NA
23	12	21	F	Filler	55	4	night.	15	365.0	NA
23	12	21	F	Question	55	4	NA	NA	2550.0	1
24	12	21	F	swets	6	2	The	1	477.0	NA
24	12	21	F	swets	6	2	hostess	2	349.0	NA
24	12	21	F	swets	6	2	of	3	384.0	NA
24	12	21	F	swets	6	2	the	4	350.0	NA
24	12	21	F	swets	6	2	mayor	5	384.0	NA
24	12	21	F	swets	6	2	who	6	350.0	NA
24	12	21	F	swets	6	2	complimented	7	484.0	NA
24	12	21	F	swets	6	2	himself	8	451.0	NA
24	12	21	F	swets	6	2	constantly	9	532.0	NA
24	12	21	F	swets	6	2	was	10	468.0	NA
24	12	21	F	swets	6	2	bothered	11	550.0	NA
24	12	21	F	swets	6	2	by	12	433.0	NA
24	12	21	F	swets	6	2	the	13	449.0	NA
24	12	21	F	swets	6	2	reporter.	14	517.0	NA
24	12	21	F	Question	6	2	NA	NA	3168.0	1
25	12	21	F	Filler	135	7	While	1	427.0	NA
25	12	21	F	Filler	135	7	Donna	2	368.0	NA
25	12	21	F	Filler	135	7	and	3	1151.0	NA
25	12	21	F	Filler	135	7	Scott	4	416.0	NA
25	12	21	F	Filler	135	7	met	5	301.0	NA
25	12	21	F	Filler	135	7	their	6	367.0	NA
25	12	21	F	Filler	135	7	agent	7	432.0	NA
25	12	21	F	Filler	135	7	some	8	833.0	NA
25	12	21	F	Filler	135	7	friends	9	417.0	NA
25	12	21	F	Filler	135	7	called	10	335.0	NA
25	12	21	F	Filler	135	7	and	11	351.0	NA
25	12	21	F	Filler	135	7	left	12	465.0	NA
25	12	21	F	Filler	135	7	a	13	518.0	NA
25	12	21	F	Filler	135	7	message.	14	416.0	NA
25	12	21	F	Question	135	7	NA	NA	4267.0	1
26	12	21	F	swets	24	2	The	1	345.0	NA
26	12	21	F	swets	24	2	daughter	2	432.0	NA
26	12	21	F	swets	24	2	of	3	359.0	NA
26	12	21	F	swets	24	2	the	4	292.0	NA
26	12	21	F	swets	24	2	chaplain	5	384.0	NA
26	12	21	F	swets	24	2	who	6	584.0	NA
26	12	21	F	swets	24	2	drew	7	300.0	NA
26	12	21	F	swets	24	2	attention	8	332.0	NA
26	12	21	F	swets	24	2	to	9	335.0	NA
26	12	21	F	swets	24	2	himself	10	415.0	NA
26	12	21	F	swets	24	2	all	11	501.0	NA
26	12	21	F	swets	24	2	the	12	500.0	NA
26	12	21	F	swets	24	2	time	13	416.0	NA
26	12	21	F	swets	24	2	hated	14	435.0	NA
26	12	21	F	swets	24	2	small	15	351.0	NA
26	12	21	F	swets	24	2	children.	16	765.0	NA
26	12	21	F	Question	24	2	NA	NA	2100.0	1
27	12	21	F	Filler	69	4	The	1	1146.0	NA
27	12	21	F	Filler	69	4	tiny	2	333.0	NA
27	12	21	F	Filler	69	4	child	3	334.0	NA
27	12	21	F	Filler	69	4	rolled	4	349.0	NA
27	12	21	F	Filler	69	4	the	5	365.0	NA
27	12	21	F	Filler	69	4	piece	6	302.0	NA
27	12	21	F	Filler	69	4	of	7	366.0	NA
27	12	21	F	Filler	69	4	the	8	318.0	NA
27	12	21	F	Filler	69	4	toy	9	264.0	NA
27	12	21	F	Filler	69	4	into	10	285.0	NA
27	12	21	F	Filler	69	4	the	11	317.0	NA
27	12	21	F	Filler	69	4	next	12	368.0	NA
27	12	21	F	Filler	69	4	room	13	233.0	NA
27	12	21	F	Filler	69	4	after	14	349.0	NA
27	12	21	F	Filler	69	4	it	15	251.0	NA
27	12	21	F	Filler	69	4	broke	16	333.0	NA
27	12	21	F	Filler	69	4	off.	17	417.0	NA
27	12	21	F	Question	69	4	NA	NA	1465.0	1
28	12	21	F	swets	17	1	The	1	462.0	NA
28	12	21	F	swets	17	1	grandmother	2	399.0	NA
28	12	21	F	swets	17	1	of	3	301.0	NA
28	12	21	F	swets	17	1	the	4	267.0	NA
28	12	21	F	swets	17	1	heiress	5	199.0	NA
28	12	21	F	swets	17	1	who	6	568.0	NA
28	12	21	F	swets	17	1	bankrupted	7	599.0	NA
28	12	21	F	swets	17	1	herself	8	483.0	NA
28	12	21	F	swets	17	1	last	9	352.0	NA
28	12	21	F	swets	17	1	year	10	332.0	NA
28	12	21	F	swets	17	1	still	11	434.0	NA
28	12	21	F	swets	17	1	made	12	283.0	NA
28	12	21	F	swets	17	1	risky	13	234.0	NA
28	12	21	F	swets	17	1	investments.	14	401.0	NA
28	12	21	F	Question	17	1	NA	NA	2399.0	1
29	12	21	F	Filler	46	4	The	1	561.0	NA
29	12	21	F	Filler	46	4	preacher	2	316.0	NA
29	12	21	F	Filler	46	4	of	3	284.0	NA
29	12	21	F	Filler	46	4	the	4	251.0	NA
29	12	21	F	Filler	46	4	congregation	5	183.0	NA
29	12	21	F	Filler	46	4	had	6	717.0	NA
29	12	21	F	Filler	46	4	given	7	300.0	NA
29	12	21	F	Filler	46	4	a	8	316.0	NA
29	12	21	F	Filler	46	4	sermon	9	285.0	NA
29	12	21	F	Filler	46	4	at	10	400.0	NA
29	12	21	F	Filler	46	4	a	11	282.0	NA
29	12	21	F	Filler	46	4	local	12	334.0	NA
29	12	21	F	Filler	46	4	school.	13	416.0	NA
29	12	21	F	Question	46	4	NA	NA	4402.0	0
30	12	21	F	Filler	79	5	Although	1	494.0	NA
30	12	21	F	Filler	79	5	the	2	335.0	NA
30	12	21	F	Filler	79	5	mechanic	3	199.0	NA
30	12	21	F	Filler	79	5	said	4	300.0	NA
30	12	21	F	Filler	79	5	the	5	235.0	NA
30	12	21	F	Filler	79	5	job	6	266.0	NA
30	12	21	F	Filler	79	5	would	7	783.0	NA
30	12	21	F	Filler	79	5	take	8	302.0	NA
30	12	21	F	Filler	79	5	four	9	398.0	NA
30	12	21	F	Filler	79	5	days	10	367.0	NA
30	12	21	F	Filler	79	5	the	11	351.0	NA
30	12	21	F	Filler	79	5	client	12	316.0	NA
30	12	21	F	Filler	79	5	didn't	13	301.0	NA
30	12	21	F	Filler	79	5	receive	14	349.0	NA
30	12	21	F	Filler	79	5	her	15	384.0	NA
30	12	21	F	Filler	79	5	car	16	1617.0	NA
30	12	21	F	Filler	79	5	for	17	701.0	NA
30	12	21	F	Filler	79	5	six	18	433.0	NA
30	12	21	F	Filler	79	5	weeks.	19	416.0	NA
30	12	21	F	Question	79	5	NA	NA	1935.0	1
31	12	21	F	Filler	56	4	The	1	428.0	NA
31	12	21	F	Filler	56	4	actor	2	400.0	NA
31	12	21	F	Filler	56	4	said	3	384.0	NA
31	12	21	F	Filler	56	4	the	4	316.0	NA
31	12	21	F	Filler	56	4	audiences	5	367.0	NA
31	12	21	F	Filler	56	4	believed	6	432.0	NA
31	12	21	F	Filler	56	4	the	7	402.0	NA
31	12	21	F	Filler	56	4	nasty	8	567.0	NA
31	12	21	F	Filler	56	4	remarks	9	484.0	NA
31	12	21	F	Filler	56	4	made	10	415.0	NA
31	12	21	F	Filler	56	4	by	11	417.0	NA
31	12	21	F	Filler	56	4	the	12	384.0	NA
31	12	21	F	Filler	56	4	film	13	433.0	NA
31	12	21	F	Filler	56	4	critic.	14	484.0	NA
31	12	21	F	Question	56	4	NA	NA	3401.0	0
32	12	21	F	Filler	65	4	Even	1	663.0	NA
32	12	21	F	Filler	65	4	though	2	367.0	NA
32	12	21	F	Filler	65	4	the	3	249.0	NA
32	12	21	F	Filler	65	4	goalie	4	267.0	NA
32	12	21	F	Filler	65	4	had	5	366.0	NA
32	12	21	F	Filler	65	4	a	6	184.0	NA
32	12	21	F	Filler	65	4	bad	7	334.0	NA
32	12	21	F	Filler	65	4	cold	8	533.0	NA
32	12	21	F	Filler	65	4	the	9	350.0	NA
32	12	21	F	Filler	65	4	team	10	417.0	NA
32	12	21	F	Filler	65	4	was	11	333.0	NA
32	12	21	F	Filler	65	4	preparing	12	451.0	NA
32	12	21	F	Filler	65	4	for	13	451.0	NA
32	12	21	F	Filler	65	4	the	14	617.0	NA
32	12	21	F	Filler	65	4	tournament.	15	599.0	NA
32	12	21	F	Question	65	4	NA	NA	1332.0	1
33	12	21	F	swets	30	2	The	1	578.0	NA
33	12	21	F	swets	30	2	bodyguard	2	401.0	NA
33	12	21	F	swets	30	2	of	3	300.0	NA
33	12	21	F	swets	30	2	the	4	317.0	NA
33	12	21	F	swets	30	2	baroness	5	400.0	NA
33	12	21	F	swets	30	2	who	6	600.0	NA
33	12	21	F	swets	30	2	prepared	7	2051.0	NA
33	12	21	F	swets	30	2	herself	8	449.0	NA
33	12	21	F	swets	30	2	very	9	335.0	NA
33	12	21	F	swets	30	2	thoroughly	10	734.0	NA
33	12	21	F	swets	30	2	came	11	417.0	NA
33	12	21	F	swets	30	2	from	12	416.0	NA
33	12	21	F	swets	30	2	the	13	334.0	NA
33	12	21	F	swets	30	2	south.	14	399.0	NA
33	12	21	F	Question	30	2	NA	NA	3384.0	1
34	12	21	F	Filler	44	4	The	1	445.0	NA
34	12	21	F	Filler	44	4	solicitor	2	333.0	NA
34	12	21	F	Filler	44	4	wearing	3	435.0	NA
34	12	21	F	Filler	44	4	the	4	383.0	NA
34	12	21	F	Filler	44	4	new	5	199.0	NA
34	12	21	F	Filler	44	4	tuxedo	6	285.0	NA
34	12	21	F	Filler	44	4	bothered	7	449.0	NA
34	12	21	F	Filler	44	4	a	8	518.0	NA
34	12	21	F	Filler	44	4	man	9	350.0	NA
34	12	21	F	Filler	44	4	from	10	366.0	NA
34	12	21	F	Filler	44	4	New	11	350.0	NA
34	12	21	F	Filler	44	4	York.	12	533.0	NA
34	12	21	F	Question	44	4	NA	NA	4067.0	1
35	12	21	F	swets	25	3	The	1	394.0	NA
35	12	21	F	swets	25	3	grandfather	2	635.0	NA
35	12	21	F	swets	25	3	of	3	232.0	NA
35	12	21	F	swets	25	3	the	4	218.0	NA
35	12	21	F	swets	25	3	stewardess	5	283.0	NA
35	12	21	F	swets	25	3	who	6	801.0	NA
35	12	21	F	swets	25	3	treated	7	415.0	NA
35	12	21	F	swets	25	3	himself	8	400.0	NA
35	12	21	F	swets	25	3	to	9	317.0	NA
35	12	21	F	swets	25	3	an	10	335.0	NA
35	12	21	F	swets	25	3	ice-cream	11	534.0	NA
35	12	21	F	swets	25	3	cone	12	365.0	NA
35	12	21	F	swets	25	3	was	13	366.0	NA
35	12	21	F	swets	25	3	waiting	14	467.0	NA
35	12	21	F	swets	25	3	at	15	368.0	NA
35	12	21	F	swets	25	3	home.	16	433.0	NA
35	12	21	F	Question	25	3	NA	NA	3301.0	1
36	12	21	F	Filler	76	5	After	1	1227.0	NA
36	12	21	F	Filler	76	5	fifty	2	319.0	NA
36	12	21	F	Filler	76	5	years	3	334.0	NA
36	12	21	F	Filler	76	5	of	4	350.0	NA
36	12	21	F	Filler	76	5	marriage	5	382.0	NA
36	12	21	F	Filler	76	5	the	6	367.0	NA
36	12	21	F	Filler	76	5	old	7	385.0	NA
36	12	21	F	Filler	76	5	couple	8	366.0	NA
36	12	21	F	Filler	76	5	still	9	399.0	NA
36	12	21	F	Filler	76	5	felt	10	285.0	NA
36	12	21	F	Filler	76	5	the	11	248.0	NA
36	12	21	F	Filler	76	5	same	12	334.0	NA
36	12	21	F	Filler	76	5	about	13	400.0	NA
36	12	21	F	Filler	76	5	each	14	383.0	NA
36	12	21	F	Filler	76	5	other	15	268.0	NA
36	12	21	F	Filler	76	5	as	16	384.0	NA
36	12	21	F	Filler	76	5	they	17	433.0	NA
36	12	21	F	Filler	76	5	had	18	566.0	NA
36	12	21	F	Filler	76	5	on	19	884.0	NA
36	12	21	F	Filler	76	5	their	20	433.0	NA
36	12	21	F	Filler	76	5	wedding	21	500.0	NA
36	12	21	F	Filler	76	5	day.	22	417.0	NA
36	12	21	F	Question	76	5	NA	NA	1568.0	1
37	12	21	F	Filler	74	5	My	1	494.0	NA
37	12	21	F	Filler	74	5	former	2	334.0	NA
37	12	21	F	Filler	74	5	girlfriend	3	367.0	NA
37	12	21	F	Filler	74	5	criticized	4	500.0	NA
37	12	21	F	Filler	74	5	the	5	451.0	NA
37	12	21	F	Filler	74	5	author's	6	533.0	NA
37	12	21	F	Filler	74	5	agent	7	400.0	NA
37	12	21	F	Filler	74	5	because	8	566.0	NA
37	12	21	F	Filler	74	5	he	9	333.0	NA
37	12	21	F	Filler	74	5	had	10	417.0	NA
37	12	21	F	Filler	74	5	failed	11	367.0	NA
37	12	21	F	Filler	74	5	to	12	417.0	NA
37	12	21	F	Filler	74	5	meet	13	535.0	NA
37	12	21	F	Filler	74	5	a	14	399.0	NA
37	12	21	F	Filler	74	5	deadline.	15	550.0	NA
37	12	21	F	Question	74	5	NA	NA	2068.0	1
38	12	21	F	Filler	87	5	The	1	511.0	NA
38	12	21	F	Filler	87	5	car	2	984.0	NA
38	12	21	F	Filler	87	5	chased	3	383.0	NA
38	12	21	F	Filler	87	5	the	4	300.0	NA
38	12	21	F	Filler	87	5	robber	5	416.0	NA
38	12	21	F	Filler	87	5	of	6	252.0	NA
38	12	21	F	Filler	87	5	the	7	366.0	NA
38	12	21	F	Filler	87	5	bank	8	350.0	NA
38	12	21	F	Filler	87	5	into	9	534.0	NA
38	12	21	F	Filler	87	5	a	10	517.0	NA
38	12	21	F	Filler	87	5	narrow	11	434.0	NA
38	12	21	F	Filler	87	5	alley.	12	666.0	NA
38	12	21	F	Question	87	5	NA	NA	11686.0	0
39	12	21	F	Filler	114	6	While	1	528.0	NA
39	12	21	F	Filler	114	6	the	2	300.0	NA
39	12	21	F	Filler	114	6	winners	3	334.0	NA
39	12	21	F	Filler	114	6	were	4	251.0	NA
39	12	21	F	Filler	114	6	kissing	5	282.0	NA
39	12	21	F	Filler	114	6	the	6	300.0	NA
39	12	21	F	Filler	114	6	crowd	7	467.0	NA
39	12	21	F	Filler	114	6	cheered	8	616.0	NA
39	12	21	F	Filler	114	6	wildly.	9	484.0	NA
39	12	21	F	Question	114	6	NA	NA	1733.0	1
40	12	21	F	swets	22	3	The	1	512.0	NA
40	12	21	F	swets	22	3	niece	2	365.0	NA
40	12	21	F	swets	22	3	of	3	351.0	NA
40	12	21	F	swets	22	3	the	4	250.0	NA
40	12	21	F	swets	22	3	commander	5	269.0	NA
40	12	21	F	swets	22	3	who	6	450.0	NA
40	12	21	F	swets	22	3	calmed	7	315.0	NA
40	12	21	F	swets	22	3	herself	8	316.0	NA
40	12	21	F	swets	22	3	after	9	451.0	NA
40	12	21	F	swets	22	3	the	10	767.0	NA
40	12	21	F	swets	22	3	tragedy	11	566.0	NA
40	12	21	F	swets	22	3	was	12	384.0	NA
40	12	21	F	swets	22	3	waiting	13	518.0	NA
40	12	21	F	swets	22	3	for	14	450.0	NA
40	12	21	F	swets	22	3	the	15	400.0	NA
40	12	21	F	swets	22	3	doctor.	16	399.0	NA
40	12	21	F	Question	22	3	NA	NA	6401.0	1
41	12	21	F	Filler	137	7	When	1	529.0	NA
41	12	21	F	Filler	137	7	Leslie	2	349.0	NA
41	12	21	F	Filler	137	7	was	3	1084.0	NA
41	12	21	F	Filler	137	7	sneezing	4	766.0	NA
41	12	21	F	Filler	137	7	her	5	384.0	NA
41	12	21	F	Filler	137	7	friends	6	351.0	NA
41	12	21	F	Filler	137	7	laughed	7	367.0	NA
41	12	21	F	Filler	137	7	at	8	349.0	NA
41	12	21	F	Filler	137	7	her.	9	350.0	NA
41	12	21	F	Question	137	7	NA	NA	1402.0	1
42	12	21	F	Filler	70	4	The	1	445.0	NA
42	12	21	F	Filler	70	4	warden	2	383.0	NA
42	12	21	F	Filler	70	4	was	3	317.0	NA
42	12	21	F	Filler	70	4	dissatisfied	4	234.0	NA
42	12	21	F	Filler	70	4	with	5	601.0	NA
42	12	21	F	Filler	70	4	the	6	315.0	NA
42	12	21	F	Filler	70	4	decision	7	285.0	NA
42	12	21	F	Filler	70	4	of	8	366.0	NA
42	12	21	F	Filler	70	4	the	9	267.0	NA
42	12	21	F	Filler	70	4	parole	10	366.0	NA
42	12	21	F	Filler	70	4	committee	11	535.0	NA
42	12	21	F	Filler	70	4	to	12	500.0	NA
42	12	21	F	Filler	70	4	pardon	13	415.0	NA
42	12	21	F	Filler	70	4	the	14	352.0	NA
42	12	21	F	Filler	70	4	prisoner.	15	400.0	NA
42	12	21	F	Question	70	4	NA	NA	1700.0	1
43	12	21	F	swets	19	3	The	1	427.0	NA
43	12	21	F	swets	19	3	mistress	2	318.0	NA
43	12	21	F	swets	19	3	of	3	316.0	NA
43	12	21	F	swets	19	3	the	4	332.0	NA
43	12	21	F	swets	19	3	actor	5	385.0	NA
43	12	21	F	swets	19	3	who	6	383.0	NA
43	12	21	F	swets	19	3	hated	7	467.0	NA
43	12	21	F	swets	19	3	herself	8	432.0	NA
43	12	21	F	swets	19	3	for	9	1618.0	NA
43	12	21	F	swets	19	3	lying	10	802.0	NA
43	12	21	F	swets	19	3	left	11	449.0	NA
43	12	21	F	swets	19	3	town	12	450.0	NA
43	12	21	F	swets	19	3	in	13	450.0	NA
43	12	21	F	swets	19	3	a	14	400.0	NA
43	12	21	F	swets	19	3	hurry.	15	566.0	NA
43	12	21	F	Question	19	3	NA	NA	1435.0	1
44	12	21	F	Filler	53	4	The	1	529.0	NA
44	12	21	F	Filler	53	4	clay	2	351.0	NA
44	12	21	F	Filler	53	4	pot	3	332.0	NA
44	12	21	F	Filler	53	4	was	4	384.0	NA
44	12	21	F	Filler	53	4	full	5	367.0	NA
44	12	21	F	Filler	53	4	of	6	283.0	NA
44	12	21	F	Filler	53	4	gold	7	283.0	NA
44	12	21	F	Filler	53	4	coins	8	468.0	NA
44	12	21	F	Filler	53	4	and	9	483.0	NA
44	12	21	F	Filler	53	4	the	10	316.0	NA
44	12	21	F	Filler	53	4	thief	11	385.0	NA
44	12	21	F	Filler	53	4	knew	12	565.0	NA
44	12	21	F	Filler	53	4	he	13	383.0	NA
44	12	21	F	Filler	53	4	had	14	401.0	NA
44	12	21	F	Filler	53	4	finally	15	384.0	NA
44	12	21	F	Filler	53	4	hit	16	351.0	NA
44	12	21	F	Filler	53	4	the	17	432.0	NA
44	12	21	F	Filler	53	4	jackpot.	18	500.0	NA
44	12	21	F	Question	53	4	NA	NA	2533.0	1
45	12	21	F	Filler	67	4	The	1	396.0	NA
45	12	21	F	Filler	67	4	restaurant	2	366.0	NA
45	12	21	F	Filler	67	4	was	3	334.0	NA
45	12	21	F	Filler	67	4	famous	4	332.0	NA
45	12	21	F	Filler	67	4	for	5	366.0	NA
45	12	21	F	Filler	67	4	its	6	368.0	NA
45	12	21	F	Filler	67	4	French	7	433.0	NA
45	12	21	F	Filler	67	4	pastries	8	384.0	NA
45	12	21	F	Filler	67	4	and	9	366.0	NA
45	12	21	F	Filler	67	4	fine	10	434.0	NA
45	12	21	F	Filler	67	4	wines.	11	516.0	NA
45	12	21	F	Question	67	4	NA	NA	4269.0	1
46	12	21	F	swets	27	2	The	1	45.0	NA
46	12	21	F	swets	27	2	sister	2	499.0	NA
46	12	21	F	swets	27	2	of	3	234.0	NA
46	12	21	F	swets	27	2	the	4	300.0	NA
46	12	21	F	swets	27	2	butcher	5	350.0	NA
46	12	21	F	swets	27	2	who	6	350.0	NA
46	12	21	F	swets	27	2	invited	7	435.0	NA
46	12	21	F	swets	27	2	himself	8	566.0	NA
46	12	21	F	swets	27	2	to	9	384.0	NA
46	12	21	F	swets	27	2	the	10	433.0	NA
46	12	21	F	swets	27	2	party	11	382.0	NA
46	12	21	F	swets	27	2	enjoyed	12	434.0	NA
46	12	21	F	swets	27	2	it	13	467.0	NA
46	12	21	F	swets	27	2	quite	14	435.0	NA
46	12	21	F	swets	27	2	a	15	300.0	NA
46	12	21	F	swets	27	2	bit.	16	467.0	NA
46	12	21	F	Question	27	2	NA	NA	6068.0	1
47	12	21	F	Filler	123	6	The	1	612.0	NA
47	12	21	F	Filler	123	6	student	2	400.0	NA
47	12	21	F	Filler	123	6	and	3	233.0	NA
47	12	21	F	Filler	123	6	professor	4	366.0	NA
47	12	21	F	Filler	123	6	went	5	318.0	NA
47	12	21	F	Filler	123	6	for	6	400.0	NA
47	12	21	F	Filler	123	6	a	7	333.0	NA
47	12	21	F	Filler	123	6	walk	8	368.0	NA
47	12	21	F	Filler	123	6	last	9	367.0	NA
47	12	21	F	Filler	123	6	Tuesday.	10	400.0	NA
47	12	21	F	Question	123	6	NA	NA	1632.0	1
48	12	21	F	Filler	71	4	The	1	561.0	NA
48	12	21	F	Filler	71	4	elderly	2	1183.0	NA
48	12	21	F	Filler	71	4	woman	3	316.0	NA
48	12	21	F	Filler	71	4	locked	4	368.0	NA
48	12	21	F	Filler	71	4	and	5	350.0	NA
48	12	21	F	Filler	71	4	bolted	6	817.0	NA
48	12	21	F	Filler	71	4	her	7	684.0	NA
48	12	21	F	Filler	71	4	door	8	418.0	NA
48	12	21	F	Filler	71	4	every	9	432.0	NA
48	12	21	F	Filler	71	4	night	10	368.0	NA
48	12	21	F	Filler	71	4	after	11	448.0	NA
48	12	21	F	Filler	71	4	the	12	401.0	NA
48	12	21	F	Filler	71	4	robbers	13	367.0	NA
48	12	21	F	Filler	71	4	took	14	333.0	NA
48	12	21	F	Filler	71	4	her	15	351.0	NA
48	12	21	F	Filler	71	4	best	16	382.0	NA
48	12	21	F	Filler	71	4	pearls.	17	518.0	NA
48	12	21	F	Question	71	4	NA	NA	1533.0	1
49	12	21	F	swets	20	1	The	1	411.0	NA
49	12	21	F	swets	20	1	brother	2	418.0	NA
49	12	21	F	swets	20	1	of	3	316.0	NA
49	12	21	F	swets	20	1	the	4	317.0	NA
49	12	21	F	swets	20	1	count	5	367.0	NA
49	12	21	F	swets	20	1	who	6	551.0	NA
49	12	21	F	swets	20	1	crippled	7	716.0	NA
49	12	21	F	swets	20	1	himself	8	467.0	NA
49	12	21	F	swets	20	1	by	9	517.0	NA
49	12	21	F	swets	20	1	falling	10	666.0	NA
49	12	21	F	swets	20	1	off	11	417.0	NA
49	12	21	F	swets	20	1	a	12	319.0	NA
49	12	21	F	swets	20	1	horse	13	383.0	NA
49	12	21	F	swets	20	1	took	14	682.0	NA
49	12	21	F	swets	20	1	a	15	384.0	NA
49	12	21	F	swets	20	1	long	16	533.0	NA
49	12	21	F	swets	20	1	time	17	433.0	NA
49	12	21	F	swets	20	1	to	18	318.0	NA
49	12	21	F	swets	20	1	get	19	416.0	NA
49	12	21	F	swets	20	1	over	20	384.0	NA
49	12	21	F	swets	20	1	it.	21	516.0	NA
49	12	21	F	Question	20	1	NA	NA	8237.0	1
50	12	21	F	Filler	104	5	Despite	1	695.0	NA
50	12	21	F	Filler	104	5	the	2	334.0	NA
50	12	21	F	Filler	104	5	relative	3	367.0	NA
50	12	21	F	Filler	104	5	lack	4	283.0	NA
50	12	21	F	Filler	104	5	of	5	301.0	NA
50	12	21	F	Filler	104	5	rain	6	283.0	NA
50	12	21	F	Filler	104	5	the	7	299.0	NA
50	12	21	F	Filler	104	5	farmer	8	334.0	NA
50	12	21	F	Filler	104	5	harvested	9	301.0	NA
50	12	21	F	Filler	104	5	much	10	299.0	NA
50	12	21	F	Filler	104	5	wheat.	11	334.0	NA
50	12	21	F	Question	104	5	NA	NA	2101.0	1
51	12	21	F	swets	12	2	The	1	361.0	NA
51	12	21	F	swets	12	2	son	2	334.0	NA
51	12	21	F	swets	12	2	of	3	266.0	NA
51	12	21	F	swets	12	2	the	4	201.0	NA
51	12	21	F	swets	12	2	princess	5	466.0	NA
51	12	21	F	swets	12	2	who	6	534.0	NA
51	12	21	F	swets	12	2	scratched	7	900.0	NA
51	12	21	F	swets	12	2	himself	8	434.0	NA
51	12	21	F	swets	12	2	in	9	366.0	NA
51	12	21	F	swets	12	2	public	10	501.0	NA
51	12	21	F	swets	12	2	was	11	517.0	NA
51	12	21	F	swets	12	2	terribly	12	532.0	NA
51	12	21	F	swets	12	2	humiliated.	13	701.0	NA
51	12	21	F	Question	12	2	NA	NA	6568.0	0
52	12	21	F	Filler	78	5	The	1	478.0	NA
52	12	21	F	Filler	78	5	customer	2	332.0	NA
52	12	21	F	Filler	78	5	complimented	3	236.0	NA
52	12	21	F	Filler	78	5	the	4	367.0	NA
52	12	21	F	Filler	78	5	store	5	266.0	NA
52	12	21	F	Filler	78	5	keeper	6	267.0	NA
52	12	21	F	Filler	78	5	with	7	217.0	NA
52	12	21	F	Filler	78	5	the	8	349.0	NA
52	12	21	F	Filler	78	5	new	9	384.0	NA
52	12	21	F	Filler	78	5	stock.	10	516.0	NA
52	12	21	F	Question	78	5	NA	NA	2251.0	1
53	12	21	F	Filler	40	4	The	1	361.0	NA
53	12	21	F	Filler	40	4	boy's	2	333.0	NA
53	12	21	F	Filler	40	4	mother	3	269.0	NA
53	12	21	F	Filler	40	4	was	4	382.0	NA
53	12	21	F	Filler	40	4	very	5	333.0	NA
53	12	21	F	Filler	40	4	happy	6	267.0	NA
53	12	21	F	Filler	40	4	to	7	268.0	NA
53	12	21	F	Filler	40	4	see	8	366.0	NA
53	12	21	F	Filler	40	4	good	9	284.0	NA
53	12	21	F	Filler	40	4	grades	10	334.0	NA
53	12	21	F	Filler	40	4	on	11	382.0	NA
53	12	21	F	Filler	40	4	his	12	334.0	NA
53	12	21	F	Filler	40	4	report	13	334.0	NA
53	12	21	F	Filler	40	4	card.	14	332.0	NA
53	12	21	F	Question	40	4	NA	NA	1968.0	1
54	12	21	F	Filler	75	5	The	1	462.0	NA
54	12	21	F	Filler	75	5	musician	2	398.0	NA
54	12	21	F	Filler	75	5	shocked	3	300.0	NA
54	12	21	F	Filler	75	5	the	4	168.0	NA
54	12	21	F	Filler	75	5	audience	5	299.0	NA
54	12	21	F	Filler	75	5	because	6	334.0	NA
54	12	21	F	Filler	75	5	they	7	384.0	NA
54	12	21	F	Filler	75	5	did	8	233.0	NA
54	12	21	F	Filler	75	5	not	9	469.0	NA
54	12	21	F	Filler	75	5	realize	10	599.0	NA
54	12	21	F	Filler	75	5	what	11	433.0	NA
54	12	21	F	Filler	75	5	these	12	333.0	NA
54	12	21	F	Filler	75	5	shows	13	384.0	NA
54	12	21	F	Filler	75	5	were	14	350.0	NA
54	12	21	F	Filler	75	5	like.	15	466.0	NA
54	12	21	F	Question	75	5	NA	NA	4434.0	1
55	12	21	F	swets	18	2	The	1	430.0	NA
55	12	21	F	swets	18	2	niece	2	350.0	NA
55	12	21	F	swets	18	2	of	3	282.0	NA
55	12	21	F	swets	18	2	the	4	301.0	NA
55	12	21	F	swets	18	2	fisherman	5	332.0	NA
55	12	21	F	swets	18	2	who	6	401.0	NA
55	12	21	F	swets	18	2	drowned	7	434.0	NA
55	12	21	F	swets	18	2	himself	8	401.0	NA
55	12	21	F	swets	18	2	in	9	433.0	NA
55	12	21	F	swets	18	2	the	10	384.0	NA
55	12	21	F	swets	18	2	ocean	11	466.0	NA
55	12	21	F	swets	18	2	didn't	12	599.0	NA
55	12	21	F	swets	18	2	know	13	302.0	NA
55	12	21	F	swets	18	2	about	14	300.0	NA
55	12	21	F	swets	18	2	the	15	299.0	NA
55	12	21	F	swets	18	2	tricky	16	567.0	NA
55	12	21	F	swets	18	2	current.	17	433.0	NA
55	12	21	F	Question	18	2	NA	NA	1233.0	1
56	12	21	F	Filler	63	4	The	1	428.0	NA
56	12	21	F	Filler	63	4	bride	2	333.0	NA
56	12	21	F	Filler	63	4	was	3	334.0	NA
56	12	21	F	Filler	63	4	devastated	4	467.0	NA
56	12	21	F	Filler	63	4	to	5	448.0	NA
56	12	21	F	Filler	63	4	lose	6	335.0	NA
56	12	21	F	Filler	63	4	her	7	349.0	NA
56	12	21	F	Filler	63	4	gold	8	417.0	NA
56	12	21	F	Filler	63	4	ring	9	434.0	NA
56	12	21	F	Filler	63	4	with	10	401.0	NA
56	12	21	F	Filler	63	4	a	11	349.0	NA
56	12	21	F	Filler	63	4	gleaming	12	568.0	NA
56	12	21	F	Filler	63	4	diamond	13	466.0	NA
56	12	21	F	Filler	63	4	in	14	384.0	NA
56	12	21	F	Filler	63	4	the	15	350.0	NA
56	12	21	F	Filler	63	4	middle.	16	434.0	NA
56	12	21	F	Question	63	4	NA	NA	2350.0	1
57	12	21	F	Filler	98	5	The	1	1145.0	NA
57	12	21	F	Filler	98	5	husband	2	433.0	NA
57	12	21	F	Filler	98	5	of	3	251.0	NA
57	12	21	F	Filler	98	5	the	4	216.0	NA
57	12	21	F	Filler	98	5	bestselling	5	266.0	NA
57	12	21	F	Filler	98	5	novelist	6	399.0	NA
57	12	21	F	Filler	98	5	was	7	518.0	NA
57	12	21	F	Filler	98	5	into	8	401.0	NA
57	12	21	F	Filler	98	5	collecting	9	665.0	NA
57	12	21	F	Filler	98	5	antiques.	10	634.0	NA
57	12	21	F	Question	98	5	NA	NA	1249.0	1
58	12	21	F	Filler	58	4	The	1	695.0	NA
58	12	21	F	Filler	58	4	white	2	432.0	NA
58	12	21	F	Filler	58	4	dog	3	301.0	NA
58	12	21	F	Filler	58	4	bit	4	299.0	NA
58	12	21	F	Filler	58	4	the	5	552.0	NA
58	12	21	F	Filler	58	4	ankle	6	449.0	NA
58	12	21	F	Filler	58	4	of	7	318.0	NA
58	12	21	F	Filler	58	4	the	8	350.0	NA
58	12	21	F	Filler	58	4	child.	9	467.0	NA
58	12	21	F	Question	58	4	NA	NA	1066.0	1
59	12	21	F	swets	14	1	The	1	444.0	NA
59	12	21	F	swets	14	1	mother	2	335.0	NA
59	12	21	F	swets	14	1	of	3	301.0	NA
59	12	21	F	swets	14	1	the	4	283.0	NA
59	12	21	F	swets	14	1	nurse	5	332.0	NA
59	12	21	F	swets	14	1	who	6	384.0	NA
59	12	21	F	swets	14	1	injured	7	1134.0	NA
59	12	21	F	swets	14	1	herself	8	433.0	NA
59	12	21	F	swets	14	1	last	9	334.0	NA
59	12	21	F	swets	14	1	summer	10	467.0	NA
59	12	21	F	swets	14	1	had	11	467.0	NA
59	12	21	F	swets	14	1	lived	12	501.0	NA
59	12	21	F	swets	14	1	in	13	417.0	NA
59	12	21	F	swets	14	1	Wales.	14	599.0	NA
59	12	21	F	Question	14	1	NA	NA	4101.0	1
60	12	21	F	Filler	81	5	The	1	494.0	NA
60	12	21	F	Filler	81	5	stubborn	2	368.0	NA
60	12	21	F	Filler	81	5	old	3	450.0	NA
60	12	21	F	Filler	81	5	man	4	200.0	NA
60	12	21	F	Filler	81	5	criticized	5	198.0	NA
60	12	21	F	Filler	81	5	everything	6	269.0	NA
60	12	21	F	Filler	81	5	that	7	367.0	NA
60	12	21	F	Filler	81	5	the	8	332.0	NA
60	12	21	F	Filler	81	5	young	9	234.0	NA
60	12	21	F	Filler	81	5	student	10	366.0	NA
60	12	21	F	Filler	81	5	did.	11	335.0	NA
60	12	21	F	Question	81	5	NA	NA	2767.0	1
61	12	21	F	Filler	121	6	The	1	428.0	NA
61	12	21	F	Filler	121	6	ecologist	2	334.0	NA
61	12	21	F	Filler	121	6	wondered	3	367.0	NA
61	12	21	F	Filler	121	6	which	4	434.0	NA
61	12	21	F	Filler	121	6	plants	5	599.0	NA
61	12	21	F	Filler	121	6	the	6	284.0	NA
61	12	21	F	Filler	121	6	scientist	7	367.0	NA
61	12	21	F	Filler	121	6	grew	8	334.0	NA
61	12	21	F	Filler	121	6	but	9	333.0	NA
61	12	21	F	Filler	121	6	didn't	10	366.0	NA
61	12	21	F	Filler	121	6	modify	11	302.0	NA
61	12	21	F	Filler	121	6	the	12	298.0	NA
61	12	21	F	Filler	121	6	seeds	13	435.0	NA
61	12	21	F	Filler	121	6	of	14	432.0	NA
61	12	21	F	Filler	121	6	in	15	368.0	NA
61	12	21	F	Filler	121	6	the	16	717.0	NA
61	12	21	F	Filler	121	6	lab.	17	567.0	NA
61	12	21	F	Question	121	6	NA	NA	8285.0	1
62	12	21	F	Filler	109	6	While	1	493.0	NA
62	12	21	F	Filler	109	6	the	2	268.0	NA
62	12	21	F	Filler	109	6	farmer	3	199.0	NA
62	12	21	F	Filler	109	6	steered	4	251.0	NA
62	12	21	F	Filler	109	6	the	5	317.0	NA
62	12	21	F	Filler	109	6	truck	6	433.0	NA
62	12	21	F	Filler	109	6	the	7	268.0	NA
62	12	21	F	Filler	109	6	tractor	8	365.0	NA
62	12	21	F	Filler	109	6	pulled	9	269.0	NA
62	12	21	F	Filler	109	6	the	10	564.0	NA
62	12	21	F	Filler	109	6	plough.	11	369.0	NA
62	12	21	F	Question	109	6	NA	NA	5367.0	1
63	12	21	F	Filler	99	5	The	1	562.0	NA
63	12	21	F	Filler	99	5	daring	2	399.0	NA
63	12	21	F	Filler	99	5	photographer	3	401.0	NA
63	12	21	F	Filler	99	5	captured	4	365.0	NA
63	12	21	F	Filler	99	5	the	5	251.0	NA
63	12	21	F	Filler	99	5	image	6	200.0	NA
63	12	21	F	Filler	99	5	of	7	334.0	NA
63	12	21	F	Filler	99	5	the	8	283.0	NA
63	12	21	F	Filler	99	5	destruction	9	333.0	NA
63	12	21	F	Filler	99	5	as	10	401.0	NA
63	12	21	F	Filler	99	5	it	11	334.0	NA
63	12	21	F	Filler	99	5	devastated	12	333.0	NA
63	12	21	F	Filler	99	5	the	13	516.0	NA
63	12	21	F	Filler	99	5	village.	14	502.0	NA
63	12	21	F	Question	99	5	NA	NA	1665.0	1
64	12	21	F	swets	8	1	The	1	1228.0	NA
64	12	21	F	swets	8	1	sister	2	367.0	NA
64	12	21	F	swets	8	1	of	3	266.0	NA
64	12	21	F	swets	8	1	the	4	301.0	NA
64	12	21	F	swets	8	1	seamstress	5	400.0	NA
64	12	21	F	swets	8	1	who	6	434.0	NA
64	12	21	F	swets	8	1	entertained	7	398.0	NA
64	12	21	F	swets	8	1	herself	8	334.0	NA
64	12	21	F	swets	8	1	most	9	402.0	NA
64	12	21	F	swets	8	1	evenings	10	433.0	NA
64	12	21	F	swets	8	1	was	11	399.0	NA
64	12	21	F	swets	8	1	reading	12	534.0	NA
64	12	21	F	swets	8	1	a	13	317.0	NA
64	12	21	F	swets	8	1	book.	14	400.0	NA
64	12	21	F	Question	8	1	NA	NA	1633.0	1
65	12	21	F	Filler	124	6	The	1	645.0	NA
65	12	21	F	Filler	124	6	mothers	2	333.0	NA
65	12	21	F	Filler	124	6	and	3	300.0	NA
65	12	21	F	Filler	124	6	teachers	4	434.0	NA
65	12	21	F	Filler	124	6	played	5	334.0	NA
65	12	21	F	Filler	124	6	tennis	6	333.0	NA
65	12	21	F	Filler	124	6	after	7	399.0	NA
65	12	21	F	Filler	124	6	the	8	352.0	NA
65	12	21	F	Filler	124	6	kids	9	367.0	NA
65	12	21	F	Filler	124	6	left.	10	233.0	NA
65	12	21	F	Question	124	6	NA	NA	1400.0	1
66	12	21	F	Filler	83	5	The	1	512.0	NA
66	12	21	F	Filler	83	5	passengers	2	365.0	NA
66	12	21	F	Filler	83	5	screamed	3	402.0	NA
66	12	21	F	Filler	83	5	as	4	433.0	NA
66	12	21	F	Filler	83	5	the	5	333.0	NA
66	12	21	F	Filler	83	5	plane	6	334.0	NA
66	12	21	F	Filler	83	5	dipped	7	365.0	NA
66	12	21	F	Filler	83	5	and	8	402.0	NA
66	12	21	F	Filler	83	5	the	9	417.0	NA
66	12	21	F	Filler	83	5	pilots	10	499.0	NA
66	12	21	F	Filler	83	5	said	11	368.0	NA
66	12	21	F	Filler	83	5	their	12	399.0	NA
66	12	21	F	Filler	83	5	prayers	13	467.0	NA
66	12	21	F	Filler	83	5	quietly.	14	468.0	NA
66	12	21	F	Question	83	5	NA	NA	1284.0	1
67	12	21	F	Filler	126	6	The	1	512.0	NA
67	12	21	F	Filler	126	6	boxes	2	366.0	NA
67	12	21	F	Filler	126	6	and	3	301.0	NA
67	12	21	F	Filler	126	6	hangers	4	299.0	NA
67	12	21	F	Filler	126	6	had	5	367.0	NA
67	12	21	F	Filler	126	6	been	6	333.0	NA
67	12	21	F	Filler	126	6	stuffed	7	368.0	NA
67	12	21	F	Filler	126	6	in	8	384.0	NA
67	12	21	F	Filler	126	6	the	9	349.0	NA
67	12	21	F	Filler	126	6	closet.	10	467.0	NA
67	12	21	F	Question	126	6	NA	NA	4284.0	1
68	12	21	F	Filler	66	4	The	1	511.0	NA
68	12	21	F	Filler	66	4	rare	2	334.0	NA
68	12	21	F	Filler	66	4	and	3	266.0	NA
68	12	21	F	Filler	66	4	exotic	4	233.0	NA
68	12	21	F	Filler	66	4	monkey	5	400.0	NA
68	12	21	F	Filler	66	4	was	6	268.0	NA
68	12	21	F	Filler	66	4	the	7	367.0	NA
68	12	21	F	Filler	66	4	center	8	266.0	NA
68	12	21	F	Filler	66	4	of	9	334.0	NA
68	12	21	F	Filler	66	4	attention	10	332.0	NA
68	12	21	F	Filler	66	4	at	11	335.0	NA
68	12	21	F	Filler	66	4	the	12	316.0	NA
68	12	21	F	Filler	66	4	zoo.	13	366.0	NA
68	12	21	F	Question	66	4	NA	NA	1334.0	1
69	12	21	F	swets	35	1	The	1	512.0	NA
69	12	21	F	swets	35	1	landlord	2	366.0	NA
69	12	21	F	swets	35	1	of	3	301.0	NA
69	12	21	F	swets	35	1	the	4	199.0	NA
69	12	21	F	swets	35	1	businessman	5	701.0	NA
69	12	21	F	swets	35	1	who	6	349.0	NA
69	12	21	F	swets	35	1	had	7	402.0	NA
69	12	21	F	swets	35	1	locked	8	298.0	NA
69	12	21	F	swets	35	1	himself	9	400.0	NA
69	12	21	F	swets	35	1	in	10	385.0	NA
69	12	21	F	swets	35	1	the	11	366.0	NA
69	12	21	F	swets	35	1	office	12	434.0	NA
69	12	21	F	swets	35	1	received	13	1000.0	NA
69	12	21	F	swets	35	1	a	14	282.0	NA
69	12	21	F	swets	35	1	phone	15	435.0	NA
69	12	21	F	swets	35	1	call.	16	401.0	NA
69	12	21	F	Question	35	1	NA	NA	3249.0	1
70	12	21	F	Filler	39	4	The	1	578.0	NA
70	12	21	F	Filler	39	4	overweight	2	367.0	NA
70	12	21	F	Filler	39	4	aunt	3	434.0	NA
70	12	21	F	Filler	39	4	decided	4	365.0	NA
70	12	21	F	Filler	39	4	to	5	318.0	NA
70	12	21	F	Filler	39	4	make	6	234.0	NA
70	12	21	F	Filler	39	4	cookies	7	332.0	NA
70	12	21	F	Filler	39	4	and	8	334.0	NA
70	12	21	F	Filler	39	4	cupcakes	9	635.0	NA
70	12	21	F	Filler	39	4	for	10	332.0	NA
70	12	21	F	Filler	39	4	the	11	317.0	NA
70	12	21	F	Filler	39	4	dinner	12	367.0	NA
70	12	21	F	Filler	39	4	party.	13	400.0	NA
70	12	21	F	Question	39	4	NA	NA	1233.0	1
71	12	21	F	swets	31	3	The	1	495.0	NA
71	12	21	F	swets	31	3	aunt	2	302.0	NA
71	12	21	F	swets	31	3	of	3	299.0	NA
71	12	21	F	swets	31	3	the	4	151.0	NA
71	12	21	F	swets	31	3	milkman	5	399.0	NA
71	12	21	F	swets	31	3	who	6	316.0	NA
71	12	21	F	swets	31	3	had	7	635.0	NA
71	12	21	F	swets	31	3	to	8	417.0	NA
71	12	21	F	swets	31	3	support	9	465.0	NA
71	12	21	F	swets	31	3	herself	10	400.0	NA
71	12	21	F	swets	31	3	with	11	702.0	NA
71	12	21	F	swets	31	3	a	12	433.0	NA
71	12	21	F	swets	31	3	low	13	516.0	NA
71	12	21	F	swets	31	3	income	14	434.0	NA
71	12	21	F	swets	31	3	liked	15	1900.0	NA
71	12	21	F	swets	31	3	to	16	350.0	NA
71	12	21	F	swets	31	3	fish.	17	400.0	NA
71	12	21	F	Question	31	3	NA	NA	1734.0	1
72	12	21	F	Filler	101	5	The	1	546.0	NA
72	12	21	F	Filler	101	5	friendly	2	333.0	NA
72	12	21	F	Filler	101	5	woman	3	267.0	NA
72	12	21	F	Filler	101	5	was	4	267.0	NA
72	12	21	F	Filler	101	5	insulted	5	333.0	NA
72	12	21	F	Filler	101	5	by	6	285.0	NA
72	12	21	F	Filler	101	5	the	7	332.0	NA
72	12	21	F	Filler	101	5	rude	8	334.0	NA
72	12	21	F	Filler	101	5	stranger	9	433.0	NA
72	12	21	F	Filler	101	5	because	10	468.0	NA
72	12	21	F	Filler	101	5	he	11	383.0	NA
72	12	21	F	Filler	101	5	didn't	12	566.0	NA
72	12	21	F	Filler	101	5	smile	13	533.0	NA
72	12	21	F	Filler	101	5	at	14	469.0	NA
72	12	21	F	Filler	101	5	her.	15	400.0	NA
72	12	21	F	Question	101	5	NA	NA	2433.0	1
73	12	21	F	Filler	86	5	The	1	497.0	NA
73	12	21	F	Filler	86	5	family's	2	431.0	NA
73	12	21	F	Filler	86	5	television	3	301.0	NA
73	12	21	F	Filler	86	5	stopped	4	366.0	NA
73	12	21	F	Filler	86	5	working	5	334.0	NA
73	12	21	F	Filler	86	5	two	6	201.0	NA
73	12	21	F	Filler	86	5	days	7	332.0	NA
73	12	21	F	Filler	86	5	after	8	301.0	NA
73	12	21	F	Filler	86	5	the	9	299.0	NA
73	12	21	F	Filler	86	5	warranty	10	235.0	NA
73	12	21	F	Filler	86	5	expired.	11	532.0	NA
73	12	21	F	Question	86	5	NA	NA	1868.0	1
74	12	21	F	swets	10	3	The	1	628.0	NA
74	12	21	F	swets	10	3	uncle	2	367.0	NA
74	12	21	F	swets	10	3	of	3	302.0	NA
74	12	21	F	swets	10	3	the	4	350.0	NA
74	12	21	F	swets	10	3	nun	5	334.0	NA
74	12	21	F	swets	10	3	who	6	499.0	NA
74	12	21	F	swets	10	3	lost	7	384.0	NA
74	12	21	F	swets	10	3	himself	8	399.0	NA
74	12	21	F	swets	10	3	in	9	451.0	NA
74	12	21	F	swets	10	3	thought	10	400.0	NA
74	12	21	F	swets	10	3	was	11	867.0	NA
74	12	21	F	swets	10	3	disturbed	12	499.0	NA
74	12	21	F	swets	10	3	by	13	434.0	NA
74	12	21	F	swets	10	3	the	14	434.0	NA
74	12	21	F	swets	10	3	noise.	15	633.0	NA
74	12	21	F	Question	10	3	NA	NA	5953.0	0
75	12	21	F	Filler	116	6	As	1	695.0	NA
75	12	21	F	Filler	116	6	the	2	335.0	NA
75	12	21	F	Filler	116	6	survivors	3	232.0	NA
75	12	21	F	Filler	116	6	were	4	350.0	NA
75	12	21	F	Filler	116	6	embracing	5	233.0	NA
75	12	21	F	Filler	116	6	the	6	334.0	NA
75	12	21	F	Filler	116	6	firefighter	7	667.0	NA
75	12	21	F	Filler	116	6	coughed	8	333.0	NA
75	12	21	F	Filler	116	6	violently.	9	300.0	NA
75	12	21	F	Question	116	6	NA	NA	2285.0	1
76	12	21	F	Filler	50	4	The	1	612.0	NA
76	12	21	F	Filler	50	4	new	2	400.0	NA
76	12	21	F	Filler	50	4	language	3	334.0	NA
76	12	21	F	Filler	50	4	requirement	4	299.0	NA
76	12	21	F	Filler	50	4	made	5	300.0	NA
76	12	21	F	Filler	50	4	all	6	268.0	NA
76	12	21	F	Filler	50	4	the	7	283.0	NA
76	12	21	F	Filler	50	4	students	8	333.0	NA
76	12	21	F	Filler	50	4	say	9	301.0	NA
76	12	21	F	Filler	50	4	bad	10	332.0	NA
76	12	21	F	Filler	50	4	things	11	368.0	NA
76	12	21	F	Filler	50	4	about	12	332.0	NA
76	12	21	F	Filler	50	4	the	13	285.0	NA
76	12	21	F	Filler	50	4	dean	14	365.0	NA
76	12	21	F	Filler	50	4	of	15	401.0	NA
76	12	21	F	Filler	50	4	the	16	384.0	NA
76	12	21	F	Filler	50	4	college.	17	467.0	NA
76	12	21	F	Question	50	4	NA	NA	2150.0	1
77	12	21	F	swets	16	3	The	1	378.0	NA
77	12	21	F	swets	16	3	widow	2	300.0	NA
77	12	21	F	swets	16	3	of	3	335.0	NA
77	12	21	F	swets	16	3	the	4	316.0	NA
77	12	21	F	swets	16	3	general	5	467.0	NA
77	12	21	F	swets	16	3	who	6	349.0	NA
77	12	21	F	swets	16	3	sacrificed	7	635.0	NA
77	12	21	F	swets	16	3	herself	8	432.0	NA
77	12	21	F	swets	16	3	for	9	533.0	NA
77	12	21	F	swets	16	3	the	10	368.0	NA
77	12	21	F	swets	16	3	cause	11	1000.0	NA
77	12	21	F	swets	16	3	was	12	568.0	NA
77	12	21	F	swets	16	3	the	13	367.0	NA
77	12	21	F	swets	16	3	subject	14	500.0	NA
77	12	21	F	swets	16	3	of	15	333.0	NA
77	12	21	F	swets	16	3	the	16	384.0	NA
77	12	21	F	swets	16	3	biography.	17	732.0	NA
77	12	21	F	Question	16	3	NA	NA	2702.0	1
78	12	21	F	Filler	143	7	The	1	411.0	NA
78	12	21	F	Filler	143	7	lawyer	2	367.0	NA
78	12	21	F	Filler	143	7	and	3	367.0	NA
78	12	21	F	Filler	143	7	defendant	4	199.0	NA
78	12	21	F	Filler	143	7	whispered	5	435.0	NA
78	12	21	F	Filler	143	7	furiously	6	567.0	NA
78	12	21	F	Filler	143	7	during	7	666.0	NA
78	12	21	F	Filler	143	7	the	8	369.0	NA
78	12	21	F	Filler	143	7	recess.	9	632.0	NA
78	12	21	F	Question	143	7	NA	NA	4134.0	1
79	12	21	F	swets	33	2	The	1	396.0	NA
79	12	21	F	swets	33	2	maid	2	333.0	NA
79	12	21	F	swets	33	2	of	3	300.0	NA
79	12	21	F	swets	33	2	the	4	234.0	NA
79	12	21	F	swets	33	2	actor	5	332.0	NA
79	12	21	F	swets	33	2	who	6	335.0	NA
79	12	21	F	swets	33	2	did	7	433.0	NA
79	12	21	F	swets	33	2	not	8	333.0	NA
79	12	21	F	swets	33	2	like	9	367.0	NA
79	12	21	F	swets	33	2	himself	10	267.0	NA
79	12	21	F	swets	33	2	very	11	367.0	NA
79	12	21	F	swets	33	2	much	12	367.0	NA
79	12	21	F	swets	33	2	caught	13	767.0	NA
79	12	21	F	swets	33	2	the	14	399.0	NA
79	12	21	F	swets	33	2	armed	15	601.0	NA
79	12	21	F	swets	33	2	robber.	16	400.0	NA
79	12	21	F	Question	33	2	NA	NA	1600.0	1
80	12	21	F	Filler	118	6	As	1	395.0	NA
80	12	21	F	Filler	118	6	the	2	302.0	NA
80	12	21	F	Filler	118	6	dog	3	398.0	NA
80	12	21	F	Filler	118	6	ran	4	334.0	NA
80	12	21	F	Filler	118	6	Wanda	5	268.0	NA
80	12	21	F	Filler	118	6	watched	6	1766.0	NA
80	12	21	F	Filler	118	6	from	7	367.0	NA
80	12	21	F	Filler	118	6	the	8	300.0	NA
80	12	21	F	Filler	118	6	window.	9	466.0	NA
80	12	21	F	Question	118	6	NA	NA	1067.0	1
81	12	21	F	Filler	133	7	While	1	795.0	NA
81	12	21	F	Filler	133	7	the	2	302.0	NA
81	12	21	F	Filler	133	7	lawyers	3	366.0	NA
81	12	21	F	Filler	133	7	fought	4	333.0	NA
81	12	21	F	Filler	133	7	the	5	351.0	NA
81	12	21	F	Filler	133	7	ruling	6	733.0	NA
81	12	21	F	Filler	133	7	the	7	366.0	NA
81	12	21	F	Filler	133	7	judge	8	1433.0	NA
81	12	21	F	Filler	133	7	announced	9	601.0	NA
81	12	21	F	Filler	133	7	the	10	334.0	NA
81	12	21	F	Filler	133	7	decision.	11	400.0	NA
81	12	21	F	Question	133	7	NA	NA	4267.0	1
82	12	21	F	swets	23	1	The	1	527.0	NA
82	12	21	F	swets	23	1	mother	2	368.0	NA
82	12	21	F	swets	23	1	of	3	266.0	NA
82	12	21	F	swets	23	1	the	4	218.0	NA
82	12	21	F	swets	23	1	ballerina	5	232.0	NA
82	12	21	F	swets	23	1	who	6	335.0	NA
82	12	21	F	swets	23	1	found	7	232.0	NA
82	12	21	F	swets	23	1	herself	8	235.0	NA
82	12	21	F	swets	23	1	in	9	333.0	NA
82	12	21	F	swets	23	1	a	10	250.0	NA
82	12	21	F	swets	23	1	lot	11	318.0	NA
82	12	21	F	swets	23	1	of	12	367.0	NA
82	12	21	F	swets	23	1	trouble	13	366.0	NA
82	12	21	F	swets	23	1	phoned	14	600.0	NA
82	12	21	F	swets	23	1	the	15	466.0	NA
82	12	21	F	swets	23	1	police.	16	434.0	NA
82	12	21	F	Question	23	1	NA	NA	1250.0	1
83	12	21	F	Filler	131	7	While	1	795.0	NA
83	12	21	F	Filler	131	7	Jamie	2	833.0	NA
83	12	21	F	Filler	131	7	dried	3	301.0	NA
83	12	21	F	Filler	131	7	off	4	467.0	NA
83	12	21	F	Filler	131	7	the	5	284.0	NA
83	12	21	F	Filler	131	7	table	6	334.0	NA
83	12	21	F	Filler	131	7	his	7	599.0	NA
83	12	21	F	Filler	131	7	sunglasses	8	500.0	NA
83	12	21	F	Filler	131	7	disappeared.	9	400.0	NA
83	12	21	F	Question	131	7	NA	NA	2050.0	1
84	12	21	F	Filler	122	6	They	1	562.0	NA
84	12	21	F	Filler	122	6	don't	2	333.0	NA
84	12	21	F	Filler	122	6	know	3	300.0	NA
84	12	21	F	Filler	122	6	which	4	267.0	NA
84	12	21	F	Filler	122	6	family	5	333.0	NA
84	12	21	F	Filler	122	6	the	6	267.0	NA
84	12	21	F	Filler	122	6	hijackers	7	299.0	NA
84	12	21	F	Filler	122	6	held	8	367.0	NA
84	12	21	F	Filler	122	6	hostage	9	367.0	NA
84	12	21	F	Filler	122	6	but	10	467.0	NA
84	12	21	F	Filler	122	6	didn't	11	467.0	NA
84	12	21	F	Filler	122	6	hurt	12	334.0	NA
84	12	21	F	Filler	122	6	the	13	451.0	NA
84	12	21	F	Filler	122	6	children	14	366.0	NA
84	12	21	F	Filler	122	6	of	15	433.0	NA
84	12	21	F	Filler	122	6	too	16	351.0	NA
84	12	21	F	Filler	122	6	much.	17	1232.0	NA
84	12	21	F	Question	122	6	NA	NA	4819.0	1
85	12	21	F	Filler	90	5	The	1	3245.0	NA
85	12	21	F	Filler	90	5	artist	2	369.0	NA
85	12	21	F	Filler	90	5	was	3	365.0	NA
85	12	21	F	Filler	90	5	not	4	367.0	NA
85	12	21	F	Filler	90	5	satisfied	5	335.0	NA
85	12	21	F	Filler	90	5	with	6	333.0	NA
85	12	21	F	Filler	90	5	his	7	332.0	NA
85	12	21	F	Filler	90	5	painting	8	367.0	NA
85	12	21	F	Filler	90	5	because	9	467.0	NA
85	12	21	F	Filler	90	5	the	10	366.0	NA
85	12	21	F	Filler	90	5	shading	11	400.0	NA
85	12	21	F	Filler	90	5	was	12	801.0	NA
85	12	21	F	Filler	90	5	off.	13	633.0	NA
85	12	21	F	Question	90	5	NA	NA	5535.0	0
86	12	21	F	Filler	128	7	While	1	761.0	NA
86	12	21	F	Filler	128	7	the	2	418.0	NA
86	12	21	F	Filler	128	7	man	3	316.0	NA
86	12	21	F	Filler	128	7	was	4	335.0	NA
86	12	21	F	Filler	128	7	walking	5	866.0	NA
86	12	21	F	Filler	128	7	the	6	367.0	NA
86	12	21	F	Filler	128	7	poodle	7	300.0	NA
86	12	21	F	Filler	128	7	barked	8	368.0	NA
86	12	21	F	Filler	128	7	loudly.	9	266.0	NA
86	12	21	F	Question	128	7	NA	NA	3100.0	1
87	12	21	F	Filler	37	4	The	1	844.0	NA
87	12	21	F	Filler	37	4	party	2	400.0	NA
87	12	21	F	Filler	37	4	attracted	3	334.0	NA
87	12	21	F	Filler	37	4	the	4	552.0	NA
87	12	21	F	Filler	37	4	fraternity	5	466.0	NA
87	12	21	F	Filler	37	4	members	6	501.0	NA
87	12	21	F	Filler	37	4	whose	7	500.0	NA
87	12	21	F	Filler	37	4	house	8	582.0	NA
87	12	21	F	Filler	37	4	had	9	368.0	NA
87	12	21	F	Filler	37	4	been	10	399.0	NA
87	12	21	F	Filler	37	4	seized	11	400.0	NA
87	12	21	F	Filler	37	4	by	12	433.0	NA
87	12	21	F	Filler	37	4	drug	13	368.0	NA
87	12	21	F	Filler	37	4	agents.	14	535.0	NA
87	12	21	F	Question	37	4	NA	NA	1950.0	1
88	12	21	F	Filler	62	4	After	1	3330.0	NA
88	12	21	F	Filler	62	4	much	2	366.0	NA
88	12	21	F	Filler	62	4	deliberation	3	900.0	NA
88	12	21	F	Filler	62	4	the	4	583.0	NA
88	12	21	F	Filler	62	4	jury	5	301.0	NA
88	12	21	F	Filler	62	4	found	6	466.0	NA
88	12	21	F	Filler	62	4	the	7	335.0	NA
88	12	21	F	Filler	62	4	defendant	8	599.0	NA
88	12	21	F	Filler	62	4	not	9	466.0	NA
88	12	21	F	Filler	62	4	guilty.	10	401.0	NA
88	12	21	F	Question	62	4	NA	NA	2385.0	1
89	12	21	F	Filler	132	7	While	1	995.0	NA
89	12	21	F	Filler	132	7	John	2	351.0	NA
89	12	21	F	Filler	132	7	and	3	333.0	NA
89	12	21	F	Filler	132	7	Mary	4	300.0	NA
89	12	21	F	Filler	132	7	kissed	5	399.0	NA
89	12	21	F	Filler	132	7	their	6	435.0	NA
89	12	21	F	Filler	132	7	daughter	7	632.0	NA
89	12	21	F	Filler	132	7	fell	8	368.0	NA
89	12	21	F	Filler	132	7	asleep.	9	401.0	NA
89	12	21	F	Question	132	7	NA	NA	1249.0	1
90	12	21	F	Filler	72	4	The	1	578.0	NA
90	12	21	F	Filler	72	4	secretaries	2	402.0	NA
90	12	21	F	Filler	72	4	couldn't	3	666.0	NA
90	12	21	F	Filler	72	4	break	4	500.0	NA
90	12	21	F	Filler	72	4	away	5	366.0	NA
90	12	21	F	Filler	72	4	from	6	368.0	NA
90	12	21	F	Filler	72	4	their	7	366.0	NA
90	12	21	F	Filler	72	4	habit	8	366.0	NA
90	12	21	F	Filler	72	4	of	9	401.0	NA
90	12	21	F	Filler	72	4	coffee	10	400.0	NA
90	12	21	F	Filler	72	4	and	11	368.0	NA
90	12	21	F	Filler	72	4	cigarettes	12	367.0	NA
90	12	21	F	Filler	72	4	during	13	598.0	NA
90	12	21	F	Filler	72	4	their	14	468.0	NA
90	12	21	F	Filler	72	4	breaks.	15	367.0	NA
90	12	21	F	Question	72	4	NA	NA	1333.0	1
91	12	21	F	swets	7	3	The	1	528.0	NA
91	12	21	F	swets	7	3	nephew	2	434.0	NA
91	12	21	F	swets	7	3	of	3	365.0	NA
91	12	21	F	swets	7	3	the	4	301.0	NA
91	12	21	F	swets	7	3	waitress	5	467.0	NA
91	12	21	F	swets	7	3	who	6	282.0	NA
91	12	21	F	swets	7	3	hurt	7	400.0	NA
91	12	21	F	swets	7	3	himself	8	501.0	NA
91	12	21	F	swets	7	3	on	9	568.0	NA
91	12	21	F	swets	7	3	the	10	816.0	NA
91	12	21	F	swets	7	3	bicycle	11	566.0	NA
91	12	21	F	swets	7	3	was	12	434.0	NA
91	12	21	F	swets	7	3	angry	13	500.0	NA
91	12	21	F	swets	7	3	about	14	534.0	NA
91	12	21	F	swets	7	3	the	15	417.0	NA
91	12	21	F	swets	7	3	incident.	16	499.0	NA
91	12	21	F	Question	7	3	NA	NA	1401.0	1
92	12	21	F	Filler	96	5	The	1	1929.0	NA
92	12	21	F	Filler	96	5	evil	2	368.0	NA
92	12	21	F	Filler	96	5	man	3	350.0	NA
92	12	21	F	Filler	96	5	watched	4	433.0	NA
92	12	21	F	Filler	96	5	the	5	984.0	NA
92	12	21	F	Filler	96	5	doorway	6	565.0	NA
92	12	21	F	Filler	96	5	of	7	368.0	NA
92	12	21	F	Filler	96	5	the	8	432.0	NA
92	12	21	F	Filler	96	5	bar	9	635.0	NA
92	12	21	F	Filler	96	5	every	10	434.0	NA
92	12	21	F	Filler	96	5	Friday	11	533.0	NA
92	12	21	F	Filler	96	5	night.	12	434.0	NA
92	12	21	F	Question	96	5	NA	NA	999.0	1
93	12	21	F	Filler	130	7	While	1	1313.0	NA
93	12	21	F	Filler	130	7	Margo	2	666.0	NA
93	12	21	F	Filler	130	7	bathed	3	400.0	NA
93	12	21	F	Filler	130	7	the	4	667.0	NA
93	12	21	F	Filler	130	7	dog	5	435.0	NA
93	12	21	F	Filler	130	7	barked	6	1498.0	NA
93	12	21	F	Filler	130	7	in	7	317.0	NA
93	12	21	F	Filler	130	7	the	8	385.0	NA
93	12	21	F	Filler	130	7	yard.	9	432.0	NA
93	12	21	F	Question	130	7	NA	NA	6152.0	1
94	12	21	F	Filler	107	5	The	1	545.0	NA
94	12	21	F	Filler	107	5	citizens	2	400.0	NA
94	12	21	F	Filler	107	5	were	3	269.0	NA
94	12	21	F	Filler	107	5	dissatisfied	4	365.0	NA
94	12	21	F	Filler	107	5	with	5	434.0	NA
94	12	21	F	Filler	107	5	the	6	334.0	NA
94	12	21	F	Filler	107	5	mayor	7	332.0	NA
94	12	21	F	Filler	107	5	of	8	336.0	NA
94	12	21	F	Filler	107	5	town	9	365.0	NA
94	12	21	F	Filler	107	5	because	10	499.0	NA
94	12	21	F	Filler	107	5	he	11	417.0	NA
94	12	21	F	Filler	107	5	had	12	368.0	NA
94	12	21	F	Filler	107	5	little	13	300.0	NA
94	12	21	F	Filler	107	5	experience.	14	533.0	NA
94	12	21	F	Question	107	5	NA	NA	1300.0	1
95	12	21	F	Filler	110	6	While	1	1278.0	NA
95	12	21	F	Filler	110	6	the	2	318.0	NA
95	12	21	F	Filler	110	6	lawyer	3	234.0	NA
95	12	21	F	Filler	110	6	was	4	399.0	NA
95	12	21	F	Filler	110	6	reading	5	333.0	NA
95	12	21	F	Filler	110	6	the	6	634.0	NA
95	12	21	F	Filler	110	6	will	7	633.0	NA
95	12	21	F	Filler	110	6	the	8	1066.0	NA
95	12	21	F	Filler	110	6	contract	9	568.0	NA
95	12	21	F	Filler	110	6	remained	10	435.0	NA
95	12	21	F	Filler	110	6	on	11	432.0	NA
95	12	21	F	Filler	110	6	the	12	367.0	NA
95	12	21	F	Filler	110	6	desk.	13	434.0	NA
95	12	21	F	Question	110	6	NA	NA	1900.0	1
96	12	21	F	Filler	57	4	The	1	495.0	NA
96	12	21	F	Filler	57	4	architect	2	432.0	NA
96	12	21	F	Filler	57	4	was	3	400.0	NA
96	12	21	F	Filler	57	4	embarrassed	4	501.0	NA
96	12	21	F	Filler	57	4	by	5	367.0	NA
96	12	21	F	Filler	57	4	the	6	334.0	NA
96	12	21	F	Filler	57	4	memo	7	400.0	NA
96	12	21	F	Filler	57	4	of	8	399.0	NA
96	12	21	F	Filler	57	4	the	9	416.0	NA
96	12	21	F	Filler	57	4	engineer	10	569.0	NA
96	12	21	F	Filler	57	4	because	11	465.0	NA
96	12	21	F	Filler	57	4	it	12	401.0	NA
96	12	21	F	Filler	57	4	said	13	400.0	NA
96	12	21	F	Filler	57	4	that	14	400.0	NA
96	12	21	F	Filler	57	4	his	15	634.0	NA
96	12	21	F	Filler	57	4	building	16	432.0	NA
96	12	21	F	Filler	57	4	would	17	201.0	NA
96	12	21	F	Filler	57	4	collapse.	18	500.0	NA
96	12	21	F	Question	57	4	NA	NA	1402.0	1
97	12	21	F	Filler	68	4	The	1	829.0	NA
97	12	21	F	Filler	68	4	scientist	2	366.0	NA
97	12	21	F	Filler	68	4	published	3	400.0	NA
97	12	21	F	Filler	68	4	a	4	369.0	NA
97	12	21	F	Filler	68	4	paper	5	599.0	NA
97	12	21	F	Filler	68	4	in	6	351.0	NA
97	12	21	F	Filler	68	4	the	7	449.0	NA
97	12	21	F	Filler	68	4	journal	8	434.0	NA
97	12	21	F	Filler	68	4	of	9	401.0	NA
97	12	21	F	Filler	68	4	the	10	365.0	NA
97	12	21	F	Filler	68	4	foreign	11	468.0	NA
97	12	21	F	Filler	68	4	organization.	12	632.0	NA
97	12	21	F	Question	68	4	NA	NA	2203.0	0
98	12	21	F	Filler	141	7	The	1	2279.0	NA
98	12	21	F	Filler	141	7	nurse	2	433.0	NA
98	12	21	F	Filler	141	7	and	3	434.0	NA
98	12	21	F	Filler	141	7	custodian	4	366.0	NA
98	12	21	F	Filler	141	7	chatted	5	501.0	NA
98	12	21	F	Filler	141	7	during	6	433.0	NA
98	12	21	F	Filler	141	7	their	7	334.0	NA
98	12	21	F	Filler	141	7	break.	8	332.0	NA
98	12	21	F	Question	141	7	NA	NA	1151.0	1
99	12	21	F	Filler	82	5	The	1	1429.0	NA
99	12	21	F	Filler	82	5	patient's	2	399.0	NA
99	12	21	F	Filler	82	5	seizures	3	334.0	NA
99	12	21	F	Filler	82	5	appeared	4	802.0	NA
99	12	21	F	Filler	82	5	to	5	466.0	NA
99	12	21	F	Filler	82	5	have	6	299.0	NA
99	12	21	F	Filler	82	5	been	7	368.0	NA
99	12	21	F	Filler	82	5	eliminated	8	499.0	NA
99	12	21	F	Filler	82	5	by	9	335.0	NA
99	12	21	F	Filler	82	5	the	10	348.0	NA
99	12	21	F	Filler	82	5	surgery.	11	468.0	NA
99	12	21	F	Question	82	5	NA	NA	1201.0	1
100	12	21	F	swets	1	3	The	1	1161.0	NA
100	12	21	F	swets	1	3	brother	2	567.0	NA
100	12	21	F	swets	1	3	of	3	367.0	NA
100	12	21	F	swets	1	3	the	4	316.0	NA
100	12	21	F	swets	1	3	actress	5	435.0	NA
100	12	21	F	swets	1	3	who	6	401.0	NA
100	12	21	F	swets	1	3	called	7	400.0	NA
100	12	21	F	swets	1	3	attention	8	667.0	NA
100	12	21	F	swets	1	3	to	9	432.0	NA
100	12	21	F	swets	1	3	himself	10	967.0	NA
100	12	21	F	swets	1	3	on	11	634.0	NA
100	12	21	F	swets	1	3	the	12	399.0	NA
100	12	21	F	swets	1	3	balcony	13	635.0	NA
100	12	21	F	swets	1	3	was	14	567.0	NA
100	12	21	F	swets	1	3	under	15	533.0	NA
100	12	21	F	swets	1	3	investigation.	16	866.0	NA
100	12	21	F	Question	1	3	NA	NA	2503.0	1
101	12	21	F	Filler	125	6	The	1	594.0	NA
101	12	21	F	Filler	125	6	bosses	2	400.0	NA
101	12	21	F	Filler	125	6	and	3	467.0	NA
101	12	21	F	Filler	125	6	secretaries	4	434.0	NA
101	12	21	F	Filler	125	6	took	5	432.0	NA
101	12	21	F	Filler	125	6	a	6	334.0	NA
101	12	21	F	Filler	125	6	long	7	400.0	NA
101	12	21	F	Filler	125	6	lunch	8	367.0	NA
101	12	21	F	Filler	125	6	together	9	367.0	NA
101	12	21	F	Filler	125	6	every	10	468.0	NA
101	12	21	F	Filler	125	6	Friday.	11	449.0	NA
101	12	21	F	Question	125	6	NA	NA	4002.0	1
102	12	21	F	Filler	94	5	After	1	561.0	NA
102	12	21	F	Filler	94	5	months	2	333.0	NA
102	12	21	F	Filler	94	5	of	3	335.0	NA
102	12	21	F	Filler	94	5	preparation	4	300.0	NA
102	12	21	F	Filler	94	5	the	5	467.0	NA
102	12	21	F	Filler	94	5	ballerina	6	434.0	NA
102	12	21	F	Filler	94	5	was	7	299.0	NA
102	12	21	F	Filler	94	5	getting	8	334.0	NA
102	12	21	F	Filler	94	5	ready	9	300.0	NA
102	12	21	F	Filler	94	5	for	10	366.0	NA
102	12	21	F	Filler	94	5	opening	11	367.0	NA
102	12	21	F	Filler	94	5	night.	12	434.0	NA
102	12	21	F	Question	94	5	NA	NA	3301.0	1
103	12	21	F	swets	2	1	The	1	1129.0	NA
103	12	21	F	swets	2	1	uncle	2	400.0	NA
103	12	21	F	swets	2	1	of	3	333.0	NA
103	12	21	F	swets	2	1	the	4	267.0	NA
103	12	21	F	swets	2	1	fireman	5	367.0	NA
103	12	21	F	swets	2	1	who	6	401.0	NA
103	12	21	F	swets	2	1	criticized	7	466.0	NA
103	12	21	F	swets	2	1	himself	8	333.0	NA
103	12	21	F	swets	2	1	far	9	502.0	NA
103	12	21	F	swets	2	1	too	10	483.0	NA
103	12	21	F	swets	2	1	often	11	499.0	NA
103	12	21	F	swets	2	1	was	12	434.0	NA
103	12	21	F	swets	2	1	painting	13	317.0	NA
103	12	21	F	swets	2	1	the	14	368.0	NA
103	12	21	F	swets	2	1	bedroom.	15	566.0	NA
103	12	21	F	Question	2	1	NA	NA	12669.0	1
104	12	21	F	Filler	45	4	The	1	744.0	NA
104	12	21	F	Filler	45	4	plumber	2	568.0	NA
104	12	21	F	Filler	45	4	repaired	3	365.0	NA
104	12	21	F	Filler	45	4	the	4	284.0	NA
104	12	21	F	Filler	45	4	sink	5	300.0	NA
104	12	21	F	Filler	45	4	of	6	299.0	NA
104	12	21	F	Filler	45	4	the	7	268.0	NA
104	12	21	F	Filler	45	4	tenant	8	300.0	NA
104	12	21	F	Filler	45	4	because	9	367.0	NA
104	12	21	F	Filler	45	4	he	10	366.0	NA
104	12	21	F	Filler	45	4	had	11	234.0	NA
104	12	21	F	Filler	45	4	just	12	367.0	NA
104	12	21	F	Filler	45	4	moved	13	499.0	NA
104	12	21	F	Filler	45	4	in.	14	400.0	NA
104	12	21	F	Question	45	4	NA	NA	1600.0	1
105	12	21	F	Filler	47	4	The	1	1645.0	NA
105	12	21	F	Filler	47	4	boys	2	300.0	NA
105	12	21	F	Filler	47	4	all	3	333.0	NA
105	12	21	F	Filler	47	4	admired	4	566.0	NA
105	12	21	F	Filler	47	4	the	5	268.0	NA
105	12	21	F	Filler	47	4	singer	6	299.0	NA
105	12	21	F	Filler	47	4	of	7	402.0	NA
105	12	21	F	Filler	47	4	the	8	367.0	NA
105	12	21	F	Filler	47	4	song	9	366.0	NA
105	12	21	F	Filler	47	4	with	10	466.0	NA
105	12	21	F	Filler	47	4	the	11	351.0	NA
105	12	21	F	Filler	47	4	long	12	566.0	NA
105	12	21	F	Filler	47	4	eyelashes.	13	700.0	NA
105	12	21	F	Question	47	4	NA	NA	1800.0	1
106	12	21	F	swets	29	1	The	1	2460.0	NA
106	12	21	F	swets	29	1	brother	2	269.0	NA
106	12	21	F	swets	29	1	of	3	299.0	NA
106	12	21	F	swets	29	1	the	4	284.0	NA
106	12	21	F	swets	29	1	colonel	5	367.0	NA
106	12	21	F	swets	29	1	who	6	2116.0	NA
106	12	21	F	swets	29	1	enjoyed	7	533.0	NA
106	12	21	F	swets	29	1	himself	8	501.0	NA
106	12	21	F	swets	29	1	a	9	434.0	NA
106	12	21	F	swets	29	1	lot	10	516.0	NA
106	12	21	F	swets	29	1	was	11	568.0	NA
106	12	21	F	swets	29	1	out	12	532.0	NA
106	12	21	F	swets	29	1	on	13	468.0	NA
106	12	21	F	swets	29	1	the	14	366.0	NA
106	12	21	F	swets	29	1	balcony.	15	501.0	NA
106	12	21	F	Question	29	1	NA	NA	24106.0	1
107	12	21	F	Filler	97	5	The	1	563.0	NA
107	12	21	F	Filler	97	5	tall	2	333.0	NA
107	12	21	F	Filler	97	5	man	3	265.0	NA
107	12	21	F	Filler	97	5	laughed	4	268.0	NA
107	12	21	F	Filler	97	5	at	5	300.0	NA
107	12	21	F	Filler	97	5	the	6	234.0	NA
107	12	21	F	Filler	97	5	clumsy	7	333.0	NA
107	12	21	F	Filler	97	5	child	8	366.0	NA
107	12	21	F	Filler	97	5	who	9	335.0	NA
107	12	21	F	Filler	97	5	spilled	10	366.0	NA
107	12	21	F	Filler	97	5	the	11	284.0	NA
107	12	21	F	Filler	97	5	milk	12	398.0	NA
107	12	21	F	Filler	97	5	on	13	269.0	NA
107	12	21	F	Filler	97	5	himself.	14	266.0	NA
107	12	21	F	Question	97	5	NA	NA	1349.0	1
108	12	21	F	Filler	142	7	The	1	412.0	NA
108	12	21	F	Filler	142	7	cats	2	333.0	NA
108	12	21	F	Filler	142	7	and	3	234.0	NA
108	12	21	F	Filler	142	7	dogs	4	332.0	NA
108	12	21	F	Filler	142	7	glared	5	269.0	NA
108	12	21	F	Filler	142	7	at	6	567.0	NA
108	12	21	F	Filler	142	7	each	7	399.0	NA
108	12	21	F	Filler	142	7	other	8	267.0	NA
108	12	21	F	Filler	142	7	warily.	9	366.0	NA
108	12	21	F	Question	142	7	NA	NA	1199.0	1
109	12	21	F	Filler	49	4	The	1	362.0	NA
109	12	21	F	Filler	49	4	construction	2	434.0	NA
109	12	21	F	Filler	49	4	worker	3	366.0	NA
109	12	21	F	Filler	49	4	sued	4	300.0	NA
109	12	21	F	Filler	49	4	the	5	351.0	NA
109	12	21	F	Filler	49	4	son	6	432.0	NA
109	12	21	F	Filler	49	4	of	7	333.0	NA
109	12	21	F	Filler	49	4	that	8	367.0	NA
109	12	21	F	Filler	49	4	greedy	9	566.0	NA
109	12	21	F	Filler	49	4	banker.	10	402.0	NA
109	12	21	F	Question	49	4	NA	NA	2199.0	1
110	12	21	F	Filler	119	6	Everybody	1	511.0	NA
110	12	21	F	Filler	119	6	is	2	402.0	NA
110	12	21	F	Filler	119	6	wondering	3	333.0	NA
110	12	21	F	Filler	119	6	which	4	334.0	NA
110	12	21	F	Filler	119	6	software	5	500.0	NA
110	12	21	F	Filler	119	6	Gary	6	501.0	NA
110	12	21	F	Filler	119	6	installed	7	398.0	NA
110	12	21	F	Filler	119	6	without	8	368.0	NA
110	12	21	F	Filler	119	6	buying	9	399.0	NA
110	12	21	F	Filler	119	6	last	10	402.0	NA
110	12	21	F	Filler	119	6	June.	11	500.0	NA
110	12	21	F	Question	119	6	NA	NA	2015.0	1
111	12	21	F	Filler	93	5	The	1	845.0	NA
111	12	21	F	Filler	93	5	new	2	366.0	NA
111	12	21	F	Filler	93	5	book	3	234.0	NA
111	12	21	F	Filler	93	5	replaced	4	267.0	NA
111	12	21	F	Filler	93	5	the	5	349.0	NA
111	12	21	F	Filler	93	5	work	6	334.0	NA
111	12	21	F	Filler	93	5	of	7	366.0	NA
111	12	21	F	Filler	93	5	the	8	300.0	NA
111	12	21	F	Filler	93	5	leaders	9	499.0	NA
111	12	21	F	Filler	93	5	in	10	368.0	NA
111	12	21	F	Filler	93	5	the	11	367.0	NA
111	12	21	F	Filler	93	5	field	12	467.0	NA
111	12	21	F	Filler	93	5	of	13	400.0	NA
111	12	21	F	Filler	93	5	physical	14	535.0	NA
111	12	21	F	Filler	93	5	chemistry.	15	565.0	NA
111	12	21	F	Question	93	5	NA	NA	2250.0	1
112	12	21	F	Filler	61	4	The	1	647.0	NA
112	12	21	F	Filler	61	4	lemon	2	399.0	NA
112	12	21	F	Filler	61	4	squirted	3	301.0	NA
112	12	21	F	Filler	61	4	into	4	433.0	NA
112	12	21	F	Filler	61	4	the	5	467.0	NA
112	12	21	F	Filler	61	4	debutante's	6	4035.0	NA
112	12	21	F	Filler	61	4	eye	7	467.0	NA
112	12	21	F	Filler	61	4	as	8	532.0	NA
112	12	21	F	Filler	61	4	she	9	418.0	NA
112	12	21	F	Filler	61	4	tried	10	432.0	NA
112	12	21	F	Filler	61	4	to	11	399.0	NA
112	12	21	F	Filler	61	4	impress	12	434.0	NA
112	12	21	F	Filler	61	4	her	13	334.0	NA
112	12	21	F	Filler	61	4	mother's	14	435.0	NA
112	12	21	F	Filler	61	4	society	15	599.0	NA
112	12	21	F	Filler	61	4	friends.	16	433.0	NA
112	12	21	F	Question	61	4	NA	NA	1852.0	1
113	12	21	F	swets	13	3	The	1	495.0	NA
113	12	21	F	swets	13	3	great-aunt	2	416.0	NA
113	12	21	F	swets	13	3	of	3	433.0	NA
113	12	21	F	swets	13	3	the	4	552.0	NA
113	12	21	F	swets	13	3	policeman	5	567.0	NA
113	12	21	F	swets	13	3	who	6	382.0	NA
113	12	21	F	swets	13	3	treated	7	467.0	NA
113	12	21	F	swets	13	3	herself	8	333.0	NA
113	12	21	F	swets	13	3	after	9	1669.0	NA
113	12	21	F	swets	13	3	the	10	599.0	NA
113	12	21	F	swets	13	3	accident	11	434.0	NA
113	12	21	F	swets	13	3	was	12	500.0	NA
113	12	21	F	swets	13	3	watching	13	499.0	NA
113	12	21	F	swets	13	3	the	14	384.0	NA
113	12	21	F	swets	13	3	news.	15	568.0	NA
113	12	21	F	Question	13	3	NA	NA	2649.0	1
114	12	21	F	Filler	88	5	The	1	830.0	NA
114	12	21	F	Filler	88	5	woman's	2	334.0	NA
114	12	21	F	Filler	88	5	posture	3	399.0	NA
114	12	21	F	Filler	88	5	began	4	367.0	NA
114	12	21	F	Filler	88	5	to	5	334.0	NA
114	12	21	F	Filler	88	5	go	6	333.0	NA
114	12	21	F	Filler	88	5	bad	7	399.0	NA
114	12	21	F	Filler	88	5	because	8	434.0	NA
114	12	21	F	Filler	88	5	of	9	367.0	NA
114	12	21	F	Filler	88	5	her	10	349.0	NA
114	12	21	F	Filler	88	5	constant	11	367.0	NA
114	12	21	F	Filler	88	5	slumping.	12	501.0	NA
114	12	21	F	Question	88	5	NA	NA	1700.0	1
115	12	21	F	Filler	105	5	The	1	512.0	NA
115	12	21	F	Filler	105	5	actors	2	367.0	NA
115	12	21	F	Filler	105	5	rehearsed	3	334.0	NA
115	12	21	F	Filler	105	5	the	4	399.0	NA
115	12	21	F	Filler	105	5	play	5	434.0	NA
115	12	21	F	Filler	105	5	so	6	267.0	NA
115	12	21	F	Filler	105	5	much	7	367.0	NA
115	12	21	F	Filler	105	5	that	8	366.0	NA
115	12	21	F	Filler	105	5	they	9	600.0	NA
115	12	21	F	Filler	105	5	became	10	500.0	NA
115	12	21	F	Filler	105	5	bored	11	299.0	NA
115	12	21	F	Filler	105	5	with	12	434.0	NA
115	12	21	F	Filler	105	5	it.	13	403.0	NA
115	12	21	F	Question	105	5	NA	NA	2298.0	1
116	12	21	F	Filler	80	5	The	1	446.0	NA
116	12	21	F	Filler	80	5	stepfather	2	367.0	NA
116	12	21	F	Filler	80	5	of	3	400.0	NA
116	12	21	F	Filler	80	5	the	4	334.0	NA
116	12	21	F	Filler	80	5	nun	5	300.0	NA
116	12	21	F	Filler	80	5	with	6	366.0	NA
116	12	21	F	Filler	80	5	a	7	818.0	NA
116	12	21	F	Filler	80	5	long	8	466.0	NA
116	12	21	F	Filler	80	5	white	9	566.0	NA
116	12	21	F	Filler	80	5	beard	10	433.0	NA
116	12	21	F	Filler	80	5	became	11	2885.0	NA
116	12	21	F	Filler	80	5	very	12	333.0	NA
116	12	21	F	Filler	80	5	ill.	13	368.0	NA
116	12	21	F	Question	80	5	NA	NA	1449.0	1
117	12	21	F	Filler	134	7	As	1	1745.0	NA
117	12	21	F	Filler	134	7	Shawnie	2	383.0	NA
117	12	21	F	Filler	134	7	and	3	600.0	NA
117	12	21	F	Filler	134	7	Nick	4	467.0	NA
117	12	21	F	Filler	134	7	were	5	368.0	NA
117	12	21	F	Filler	134	7	embracing	6	549.0	NA
117	12	21	F	Filler	134	7	the	7	1135.0	NA
117	12	21	F	Filler	134	7	doctor	8	749.0	NA
117	12	21	F	Filler	134	7	the	9	450.0	NA
117	12	21	F	Filler	134	7	visitor	10	1601.0	NA
117	12	21	F	Filler	134	7	entered	11	601.0	NA
117	12	21	F	Filler	134	7	the	12	467.0	NA
117	12	21	F	Filler	134	7	room.	13	533.0	NA
117	12	21	F	Question	134	7	NA	NA	1499.0	1
118	12	21	F	Filler	52	4	The	1	1312.0	NA
118	12	21	F	Filler	52	4	students	2	368.0	NA
118	12	21	F	Filler	52	4	were	3	282.0	NA
118	12	21	F	Filler	52	4	bored	4	300.0	NA
118	12	21	F	Filler	52	4	by	5	368.0	NA
118	12	21	F	Filler	52	4	the	6	299.0	NA
118	12	21	F	Filler	52	4	teacher.	7	466.0	NA
118	12	21	F	Question	52	4	NA	NA	2851.0	1
119	12	21	F	Filler	111	6	While	1	577.0	NA
119	12	21	F	Filler	111	6	the	2	502.0	NA
119	12	21	F	Filler	111	6	clown	3	333.0	NA
119	12	21	F	Filler	111	6	juggled	4	366.0	NA
119	12	21	F	Filler	111	6	the	5	734.0	NA
119	12	21	F	Filler	111	6	balls	6	399.0	NA
119	12	21	F	Filler	111	6	fell	7	635.0	NA
119	12	21	F	Filler	111	6	to	8	1099.0	NA
119	12	21	F	Filler	111	6	the	9	518.0	NA
119	12	21	F	Filler	111	6	ground.	10	733.0	NA
119	12	21	F	Question	111	6	NA	NA	1200.0	1
120	12	21	F	swets	15	2	The	1	645.0	NA
120	12	21	F	swets	15	2	husband	2	535.0	NA
120	12	21	F	swets	15	2	of	3	333.0	NA
120	12	21	F	swets	15	2	the	4	349.0	NA
120	12	21	F	swets	15	2	beautician	5	418.0	NA
120	12	21	F	swets	15	2	who	6	1982.0	NA
120	12	21	F	swets	15	2	cut	7	702.0	NA
120	12	21	F	swets	15	2	herself	8	432.0	NA
120	12	21	F	swets	15	2	on	9	568.0	NA
120	12	21	F	swets	15	2	the	10	450.0	NA
120	12	21	F	swets	15	2	broken	11	484.0	NA
120	12	21	F	swets	15	2	glass	12	432.0	NA
120	12	21	F	swets	15	2	phoned	13	667.0	NA
120	12	21	F	swets	15	2	for	14	368.0	NA
120	12	21	F	swets	15	2	a	15	334.0	NA
120	12	21	F	swets	15	2	doctor.	16	498.0	NA
120	12	21	F	Question	15	2	NA	NA	1102.0	1
121	12	21	F	Filler	115	6	As	1	794.0	NA
121	12	21	F	Filler	115	6	Elaine	2	333.0	NA
121	12	21	F	Filler	115	6	and	3	368.0	NA
121	12	21	F	Filler	115	6	Robert	4	367.0	NA
121	12	21	F	Filler	115	6	fought	5	335.0	NA
121	12	21	F	Filler	115	6	the	6	415.0	NA
121	12	21	F	Filler	115	6	mosquitoes	7	751.0	NA
121	12	21	F	Filler	115	6	whined	8	2233.0	NA
121	12	21	F	Filler	115	6	annoyingly.	9	701.0	NA
121	12	21	F	Question	115	6	NA	NA	2101.0	1
122	12	21	F	Filler	117	6	While	1	428.0	NA
122	12	21	F	Filler	117	6	Mike	2	317.0	NA
122	12	21	F	Filler	117	6	coughed	3	383.0	NA
122	12	21	F	Filler	117	6	Janet	4	417.0	NA
122	12	21	F	Filler	117	6	went	5	600.0	NA
122	12	21	F	Filler	117	6	out	6	368.0	NA
122	12	21	F	Filler	117	6	to	7	817.0	NA
122	12	21	F	Filler	117	6	get	8	366.0	NA
122	12	21	F	Filler	117	6	some	9	366.0	NA
122	12	21	F	Filler	117	6	cough	10	467.0	NA
122	12	21	F	Filler	117	6	medicine.	11	468.0	NA
122	12	21	F	Question	117	6	NA	NA	901.0	1
123	12	21	F	swets	11	1	The	1	1246.0	NA
123	12	21	F	swets	11	1	father	2	400.0	NA
123	12	21	F	swets	11	1	of	3	333.0	NA
123	12	21	F	swets	11	1	the	4	352.0	NA
123	12	21	F	swets	11	1	surgeon	5	515.0	NA
123	12	21	F	swets	11	1	who	6	418.0	NA
123	12	21	F	swets	11	1	made	7	465.0	NA
123	12	21	F	swets	11	1	a	8	318.0	NA
123	12	21	F	swets	11	1	fool	9	400.0	NA
123	12	21	F	swets	11	1	of	10	434.0	NA
123	12	21	F	swets	11	1	himself	11	434.0	NA
123	12	21	F	swets	11	1	at	12	699.0	NA
123	12	21	F	swets	11	1	the	13	417.0	NA
123	12	21	F	swets	11	1	party	14	500.0	NA
123	12	21	F	swets	11	1	was	15	1134.0	NA
123	12	21	F	swets	11	1	greatly	16	533.0	NA
123	12	21	F	swets	11	1	embarrassed.	17	734.0	NA
123	12	21	F	Question	11	1	NA	NA	1850.0	0
124	12	21	F	Filler	43	4	The	1	1146.0	NA
124	12	21	F	Filler	43	4	movie	2	499.0	NA
124	12	21	F	Filler	43	4	director	3	468.0	NA
124	12	21	F	Filler	43	4	refused	4	333.0	NA
124	12	21	F	Filler	43	4	to	5	400.0	NA
124	12	21	F	Filler	43	4	work	6	534.0	NA
124	12	21	F	Filler	43	4	with	7	366.0	NA
124	12	21	F	Filler	43	4	the	8	401.0	NA
124	12	21	F	Filler	43	4	producer	9	517.0	NA
124	12	21	F	Filler	43	4	again	10	599.0	NA
124	12	21	F	Filler	43	4	after	11	467.0	NA
124	12	21	F	Filler	43	4	winning	12	466.0	NA
124	12	21	F	Filler	43	4	the	13	970.0	NA
124	12	21	F	Filler	43	4	grand	14	599.0	NA
124	12	21	F	Filler	43	4	prize.	15	716.0	NA
124	12	21	F	Question	43	4	NA	NA	5368.0	1
125	12	21	F	Filler	38	4	Despite	1	678.0	NA
125	12	21	F	Filler	38	4	the	2	901.0	NA
125	12	21	F	Filler	38	4	lack	3	366.0	NA
125	12	21	F	Filler	38	4	of	4	300.0	NA
125	12	21	F	Filler	38	4	publicity	5	350.0	NA
125	12	21	F	Filler	38	4	many	6	634.0	NA
125	12	21	F	Filler	38	4	people	7	400.0	NA
125	12	21	F	Filler	38	4	attended	8	300.0	NA
125	12	21	F	Filler	38	4	the	9	335.0	NA
125	12	21	F	Filler	38	4	lecture.	10	448.0	NA
125	12	21	F	Question	38	4	NA	NA	1751.0	1
126	12	21	F	swets	26	1	The	1	595.0	NA
126	12	21	F	swets	26	1	grand-nephew	2	851.0	NA
126	12	21	F	swets	26	1	of	3	534.0	NA
126	12	21	F	swets	26	1	the	4	383.0	NA
126	12	21	F	swets	26	1	admiral	5	867.0	NA
126	12	21	F	swets	26	1	who	6	417.0	NA
126	12	21	F	swets	26	1	wrote	7	516.0	NA
126	12	21	F	swets	26	1	himself	8	500.0	NA
126	12	21	F	swets	26	1	a	9	450.0	NA
126	12	21	F	swets	26	1	note	10	634.0	NA
126	12	21	F	swets	26	1	admired	11	834.0	NA
126	12	21	F	swets	26	1	sailors	12	934.0	NA
126	12	21	F	swets	26	1	very	13	632.0	NA
126	12	21	F	swets	26	1	much.	14	418.0	NA
126	12	21	F	Question	26	1	NA	NA	4601.0	1
127	12	21	F	Filler	138	7	While	1	1495.0	NA
127	12	21	F	Filler	138	7	Pedro	2	335.0	NA
127	12	21	F	Filler	138	7	was	3	632.0	NA
127	12	21	F	Filler	138	7	swimming	4	367.0	NA
127	12	21	F	Filler	138	7	the	5	433.0	NA
127	12	21	F	Filler	138	7	lifeguard	6	401.0	NA
127	12	21	F	Filler	138	7	sat	7	300.0	NA
127	12	21	F	Filler	138	7	in	8	232.0	NA
127	12	21	F	Filler	138	7	his	9	300.0	NA
127	12	21	F	Filler	138	7	chair.	10	384.0	NA
127	12	21	F	Question	138	7	NA	NA	1218.0	1
128	12	21	F	Filler	106	5	On	1	1929.0	NA
128	12	21	F	Filler	106	5	the	2	434.0	NA
128	12	21	F	Filler	106	5	last	3	366.0	NA
128	12	21	F	Filler	106	5	night	4	433.0	NA
128	12	21	F	Filler	106	5	of	5	568.0	NA
128	12	21	F	Filler	106	5	summer	6	533.0	NA
128	12	21	F	Filler	106	5	camp	7	934.0	NA
128	12	21	F	Filler	106	5	the	8	484.0	NA
128	12	21	F	Filler	106	5	counselors	9	684.0	NA
128	12	21	F	Filler	106	5	let	10	715.0	NA
128	12	21	F	Filler	106	5	the	11	367.0	NA
128	12	21	F	Filler	106	5	children	12	467.0	NA
128	12	21	F	Filler	106	5	stay	13	434.0	NA
128	12	21	F	Filler	106	5	up	14	400.0	NA
128	12	21	F	Filler	106	5	until	15	500.0	NA
128	12	21	F	Filler	106	5	midnight.	16	401.0	NA
128	12	21	F	Question	106	5	NA	NA	1249.0	1
129	12	21	F	Filler	103	5	The	1	1195.0	NA
129	12	21	F	Filler	103	5	desperate	2	533.0	NA
129	12	21	F	Filler	103	5	thief	3	366.0	NA
129	12	21	F	Filler	103	5	ran	4	501.0	NA
129	12	21	F	Filler	103	5	over	5	433.0	NA
129	12	21	F	Filler	103	5	a	6	352.0	NA
129	12	21	F	Filler	103	5	child	7	432.0	NA
129	12	21	F	Filler	103	5	in	8	501.0	NA
129	12	21	F	Filler	103	5	an	9	433.0	NA
129	12	21	F	Filler	103	5	attempt	10	567.0	NA
129	12	21	F	Filler	103	5	to	11	351.0	NA
129	12	21	F	Filler	103	5	dodge	12	565.0	NA
129	12	21	F	Filler	103	5	the	13	384.0	NA
129	12	21	F	Filler	103	5	cops.	14	567.0	NA
129	12	21	F	Question	103	5	NA	NA	3102.0	0
130	12	21	F	Filler	73	5	My	1	928.0	NA
130	12	21	F	Filler	73	5	cousins	2	401.0	NA
130	12	21	F	Filler	73	5	admired	3	367.0	NA
130	12	21	F	Filler	73	5	the	4	416.0	NA
130	12	21	F	Filler	73	5	singer	5	434.0	NA
130	12	21	F	Filler	73	5	although	6	498.0	NA
130	12	21	F	Filler	73	5	she	7	519.0	NA
130	12	21	F	Filler	73	5	never	8	634.0	NA
130	12	21	F	Filler	73	5	became	9	549.0	NA
130	12	21	F	Filler	73	5	popular.	10	650.0	NA
130	12	21	F	Question	73	5	NA	NA	9303.0	1
131	12	21	F	Filler	59	4	The	1	612.0	NA
131	12	21	F	Filler	59	4	conductor	2	399.0	NA
131	12	21	F	Filler	59	4	of	3	368.0	NA
131	12	21	F	Filler	59	4	the	4	283.0	NA
131	12	21	F	Filler	59	4	orchestra	5	468.0	NA
131	12	21	F	Filler	59	4	with	6	399.0	NA
131	12	21	F	Filler	59	4	the	7	385.0	NA
131	12	21	F	Filler	59	4	bald	8	448.0	NA
131	12	21	F	Filler	59	4	head	9	835.0	NA
131	12	21	F	Filler	59	4	plays	10	1132.0	NA
131	12	21	F	Filler	59	4	excellently.	11	600.0	NA
131	12	21	F	Question	59	4	NA	NA	1452.0	1
132	12	21	F	swets	36	2	The	1	528.0	NA
132	12	21	F	swets	36	2	son	2	334.0	NA
132	12	21	F	swets	36	2	of	3	300.0	NA
132	12	21	F	swets	36	2	the	4	333.0	NA
132	12	21	F	swets	36	2	saleswoman	5	734.0	NA
132	12	21	F	swets	36	2	who	6	668.0	NA
132	12	21	F	swets	36	2	talked	7	499.0	NA
132	12	21	F	swets	36	2	to	8	350.0	NA
132	12	21	F	swets	36	2	herself	9	1601.0	NA
132	12	21	F	swets	36	2	all	10	766.0	NA
132	12	21	F	swets	36	2	the	11	434.0	NA
132	12	21	F	swets	36	2	time	12	467.0	NA
132	12	21	F	swets	36	2	walked	13	566.0	NA
132	12	21	F	swets	36	2	into	14	600.0	NA
132	12	21	F	swets	36	2	the	15	402.0	NA
132	12	21	F	swets	36	2	room.	16	532.0	NA
132	12	21	F	Question	36	2	NA	NA	1600.0	1
133	12	21	F	Filler	139	7	Laurie	1	594.0	NA
133	12	21	F	Filler	139	7	asked	2	400.0	NA
133	12	21	F	Filler	139	7	which	3	400.0	NA
133	12	21	F	Filler	139	7	truck	4	600.0	NA
133	12	21	F	Filler	139	7	the	5	368.0	NA
133	12	21	F	Filler	139	7	dealership	6	433.0	NA
133	12	21	F	Filler	139	7	sold	7	385.0	NA
133	12	21	F	Filler	139	7	but	8	398.0	NA
133	12	21	F	Filler	139	7	didn't	9	650.0	NA
133	12	21	F	Filler	139	7	paint	10	536.0	NA
133	12	21	F	Filler	139	7	completely.	11	632.0	NA
133	12	21	F	Question	139	7	NA	NA	1517.0	1
134	12	21	F	Filler	112	6	As	1	562.0	NA
134	12	21	F	Filler	112	6	the	2	416.0	NA
134	12	21	F	Filler	112	6	dog	3	301.0	NA
134	12	21	F	Filler	112	6	was	4	399.0	NA
134	12	21	F	Filler	112	6	calming	5	501.0	NA
134	12	21	F	Filler	112	6	down	6	667.0	NA
134	12	21	F	Filler	112	6	the	7	467.0	NA
134	12	21	F	Filler	112	6	puppy	8	433.0	NA
134	12	21	F	Filler	112	6	slept	9	584.0	NA
134	12	21	F	Filler	112	6	in	10	382.0	NA
134	12	21	F	Filler	112	6	the	11	367.0	NA
134	12	21	F	Filler	112	6	cage.	12	602.0	NA
134	12	21	F	Question	112	6	NA	NA	1248.0	1
135	12	21	F	swets	28	3	The	1	513.0	NA
135	12	21	F	swets	28	3	nephew	2	500.0	NA
135	12	21	F	swets	28	3	of	3	334.0	NA
135	12	21	F	swets	28	3	the	4	283.0	NA
135	12	21	F	swets	28	3	baroness	5	1149.0	NA
135	12	21	F	swets	28	3	who	6	351.0	NA
135	12	21	F	swets	28	3	admired	7	699.0	NA
135	12	21	F	swets	28	3	himself	8	2400.0	NA
135	12	21	F	swets	28	3	an	9	868.0	NA
135	12	21	F	swets	28	3	inordinate	10	900.0	NA
135	12	21	F	swets	28	3	amount	11	550.0	NA
135	12	21	F	swets	28	3	enjoyed	12	651.0	NA
135	12	21	F	swets	28	3	all	13	467.0	NA
135	12	21	F	swets	28	3	the	14	416.0	NA
135	12	21	F	swets	28	3	attention.	15	467.0	NA
135	12	21	F	Question	28	3	NA	NA	1300.0	1
136	12	21	F	Filler	54	4	The	1	477.0	NA
136	12	21	F	Filler	54	4	video	2	434.0	NA
136	12	21	F	Filler	54	4	screen	3	333.0	NA
136	12	21	F	Filler	54	4	of	4	451.0	NA
136	12	21	F	Filler	54	4	the	5	366.0	NA
136	12	21	F	Filler	54	4	monitor	6	518.0	NA
136	12	21	F	Filler	54	4	made	7	417.0	NA
136	12	21	F	Filler	54	4	strange	8	449.0	NA
136	12	21	F	Filler	54	4	noises	9	385.0	NA
136	12	21	F	Filler	54	4	and	10	498.0	NA
136	12	21	F	Filler	54	4	started	11	567.0	NA
136	12	21	F	Filler	54	4	emitting	12	566.0	NA
136	12	21	F	Filler	54	4	strange	13	500.0	NA
136	12	21	F	Filler	54	4	flashes.	14	567.0	NA
136	12	21	F	Question	54	4	NA	NA	2418.0	1
137	12	21	F	Filler	95	5	The	1	495.0	NA
137	12	21	F	Filler	95	5	receptionist	2	400.0	NA
137	12	21	F	Filler	95	5	of	3	500.0	NA
137	12	21	F	Filler	95	5	the	4	400.0	NA
137	12	21	F	Filler	95	5	company	5	434.0	NA
137	12	21	F	Filler	95	5	went	6	500.0	NA
137	12	21	F	Filler	95	5	home	7	335.0	NA
137	12	21	F	Filler	95	5	sick	8	633.0	NA
137	12	21	F	Filler	95	5	before	9	749.0	NA
137	12	21	F	Filler	95	5	moving	10	550.0	NA
137	12	21	F	Filler	95	5	across	11	434.0	NA
137	12	21	F	Filler	95	5	town.	12	433.0	NA
137	12	21	F	Question	95	5	NA	NA	1451.0	1
138	12	21	F	Filler	60	4	The	1	1329.0	NA
138	12	21	F	Filler	60	4	newlyweds	2	933.0	NA
138	12	21	F	Filler	60	4	were	3	451.0	NA
138	12	21	F	Filler	60	4	nervous	4	549.0	NA
138	12	21	F	Filler	60	4	about	5	501.0	NA
138	12	21	F	Filler	60	4	their	6	333.0	NA
138	12	21	F	Filler	60	4	new	7	401.0	NA
138	12	21	F	Filler	60	4	life	8	432.0	NA
138	12	21	F	Filler	60	4	together.	9	467.0	NA
138	12	21	F	Question	60	4	NA	NA	1400.0	1
139	12	21	F	Filler	108	5	The	1	1128.0	NA
139	12	21	F	Filler	108	5	museum	2	450.0	NA
139	12	21	F	Filler	108	5	wing	3	333.0	NA
139	12	21	F	Filler	108	5	which	4	401.0	NA
139	12	21	F	Filler	108	5	housed	5	400.0	NA
139	12	21	F	Filler	108	5	all	6	334.0	NA
139	12	21	F	Filler	108	5	the	7	349.0	NA
139	12	21	F	Filler	108	5	Picasso	8	650.0	NA
139	12	21	F	Filler	108	5	paintings	9	567.0	NA
139	12	21	F	Filler	108	5	was	10	367.0	NA
139	12	21	F	Filler	108	5	very	11	467.0	NA
139	12	21	F	Filler	108	5	crowded.	12	532.0	NA
139	12	21	F	Question	108	5	NA	NA	2202.0	1
140	12	21	F	Filler	144	7	The	1	494.0	NA
140	12	21	F	Filler	144	7	apple	2	367.0	NA
140	12	21	F	Filler	144	7	and	3	335.0	NA
140	12	21	F	Filler	144	7	potato	4	366.0	NA
140	12	21	F	Filler	144	7	went	5	366.0	NA
140	12	21	F	Filler	144	7	rotten	6	501.0	NA
140	12	21	F	Filler	144	7	after	7	533.0	NA
140	12	21	F	Filler	144	7	a	8	385.0	NA
140	12	21	F	Filler	144	7	week.	9	465.0	NA
140	12	21	F	Question	144	7	NA	NA	2786.0	1
141	12	21	F	Filler	84	5	While	1	494.0	NA
141	12	21	F	Filler	84	5	talking	2	334.0	NA
141	12	21	F	Filler	84	5	to	3	350.0	NA
141	12	21	F	Filler	84	5	his	4	266.0	NA
141	12	21	F	Filler	84	5	sister	5	299.0	NA
141	12	21	F	Filler	84	5	the	6	401.0	NA
141	12	21	F	Filler	84	5	bishop	7	450.0	NA
141	12	21	F	Filler	84	5	with	8	566.0	NA
141	12	21	F	Filler	84	5	the	9	334.0	NA
141	12	21	F	Filler	84	5	funny	10	333.0	NA
141	12	21	F	Filler	84	5	eyebrows	11	450.0	NA
141	12	21	F	Filler	84	5	advocated	12	468.0	NA
141	12	21	F	Filler	84	5	strange	13	499.0	NA
141	12	21	F	Filler	84	5	beliefs.	14	350.0	NA
141	12	21	F	Question	84	5	NA	NA	1651.0	1
142	12	21	F	Filler	51	4	The	1	796.0	NA
142	12	21	F	Filler	51	4	students	2	349.0	NA
142	12	21	F	Filler	51	4	were	3	334.0	NA
142	12	21	F	Filler	51	4	in	4	300.0	NA
142	12	21	F	Filler	51	4	a	5	299.0	NA
142	12	21	F	Filler	51	4	frenzy	6	650.0	NA
142	12	21	F	Filler	51	4	because	7	502.0	NA
142	12	21	F	Filler	51	4	they	8	399.0	NA
142	12	21	F	Filler	51	4	wanted	9	401.0	NA
142	12	21	F	Filler	51	4	tickets	10	433.0	NA
142	12	21	F	Filler	51	4	for	11	432.0	NA
142	12	21	F	Filler	51	4	the	12	383.0	NA
142	12	21	F	Filler	51	4	game	13	667.0	NA
142	12	21	F	Filler	51	4	tonight.	14	702.0	NA
142	12	21	F	Question	51	4	NA	NA	2100.0	1
143	12	21	F	Filler	140	7	The	1	1128.0	NA
143	12	21	F	Filler	140	7	investigators	2	633.0	NA
143	12	21	F	Filler	140	7	asked	3	368.0	NA
143	12	21	F	Filler	140	7	which	4	532.0	NA
143	12	21	F	Filler	140	7	mansion	5	534.0	NA
143	12	21	F	Filler	140	7	the	6	433.0	NA
143	12	21	F	Filler	140	7	owner	7	401.0	NA
143	12	21	F	Filler	140	7	sold	8	417.0	NA
143	12	21	F	Filler	140	7	and	9	400.0	NA
143	12	21	F	Filler	140	7	didn't	10	499.0	NA
143	12	21	F	Filler	140	7	repair	11	433.0	NA
143	12	21	F	Filler	140	7	ten	12	469.0	NA
143	12	21	F	Filler	140	7	years	13	532.0	NA
143	12	21	F	Filler	140	7	ago.	14	402.0	NA
143	12	21	F	Question	140	7	NA	NA	2248.0	1
