trial	subj	age	gender	stimulustype	item	condition	word	position	rt	correct
0	24	21	F	swets	32	1	The	1	379.0	NA
0	24	21	F	swets	32	1	niece	2	233.0	NA
0	24	21	F	swets	32	1	of	3	234.0	NA
0	24	21	F	swets	32	1	the	4	233.0	NA
0	24	21	F	swets	32	1	duchess	5	249.0	NA
0	24	21	F	swets	32	1	who	6	251.0	NA
0	24	21	F	swets	32	1	looked	7	265.0	NA
0	24	21	F	swets	32	1	at	8	202.0	NA
0	24	21	F	swets	32	1	herself	9	333.0	NA
0	24	21	F	swets	32	1	in	10	283.0	NA
0	24	21	F	swets	32	1	the	11	284.0	NA
0	24	21	F	swets	32	1	mirror	12	184.0	NA
0	24	21	F	swets	32	1	wore	13	249.0	NA
0	24	21	F	swets	32	1	a	14	317.0	NA
0	24	21	F	swets	32	1	blue	15	267.0	NA
0	24	21	F	swets	32	1	shirt.	16	284.0	NA
0	24	21	F	Question	32	1	NA	NA	2367.0	1
1	24	21	F	Filler	86	5	The	1	2229.0	NA
1	24	21	F	Filler	86	5	family's	2	250.0	NA
1	24	21	F	Filler	86	5	television	3	251.0	NA
1	24	21	F	Filler	86	5	stopped	4	267.0	NA
1	24	21	F	Filler	86	5	working	5	217.0	NA
1	24	21	F	Filler	86	5	two	6	233.0	NA
1	24	21	F	Filler	86	5	days	7	249.0	NA
1	24	21	F	Filler	86	5	after	8	267.0	NA
1	24	21	F	Filler	86	5	the	9	267.0	NA
1	24	21	F	Filler	86	5	warranty	10	234.0	NA
1	24	21	F	Filler	86	5	expired.	11	249.0	NA
1	24	21	F	Question	86	5	NA	NA	1333.0	1
2	24	21	F	Filler	136	7	While	1	562.0	NA
2	24	21	F	Filler	136	7	Mark	2	250.0	NA
2	24	21	F	Filler	136	7	and	3	216.0	NA
2	24	21	F	Filler	136	7	Jenny	4	217.0	NA
2	24	21	F	Filler	136	7	were	5	218.0	NA
2	24	21	F	Filler	136	7	cuddling	6	233.0	NA
2	24	21	F	Filler	136	7	the	7	217.0	NA
2	24	21	F	Filler	136	7	older	8	267.0	NA
2	24	21	F	Filler	136	7	dogs	9	250.0	NA
2	24	21	F	Filler	136	7	the	10	250.0	NA
2	24	21	F	Filler	136	7	puppies	11	833.0	NA
2	24	21	F	Filler	136	7	nipped	12	284.0	NA
2	24	21	F	Filler	136	7	at	13	366.0	NA
2	24	21	F	Filler	136	7	their	14	268.0	NA
2	24	21	F	Filler	136	7	feet.	15	249.0	NA
2	24	21	F	Question	136	7	NA	NA	4635.0	1
3	24	21	F	Filler	122	6	They	1	911.0	NA
3	24	21	F	Filler	122	6	don't	2	200.0	NA
3	24	21	F	Filler	122	6	know	3	184.0	NA
3	24	21	F	Filler	122	6	which	4	167.0	NA
3	24	21	F	Filler	122	6	family	5	282.0	NA
3	24	21	F	Filler	122	6	the	6	218.0	NA
3	24	21	F	Filler	122	6	hijackers	7	1217.0	NA
3	24	21	F	Filler	122	6	held	8	333.0	NA
3	24	21	F	Filler	122	6	hostage	9	318.0	NA
3	24	21	F	Filler	122	6	but	10	283.0	NA
3	24	21	F	Filler	122	6	didn't	11	350.0	NA
3	24	21	F	Filler	122	6	hurt	12	283.0	NA
3	24	21	F	Filler	122	6	the	13	367.0	NA
3	24	21	F	Filler	122	6	children	14	734.0	NA
3	24	21	F	Filler	122	6	of	15	332.0	NA
3	24	21	F	Filler	122	6	too	16	234.0	NA
3	24	21	F	Filler	122	6	much.	17	733.0	NA
3	24	21	F	Question	122	6	NA	NA	1501.0	1
4	24	21	F	swets	29	1	The	1	462.0	NA
4	24	21	F	swets	29	1	brother	2	265.0	NA
4	24	21	F	swets	29	1	of	3	233.0	NA
4	24	21	F	swets	29	1	the	4	202.0	NA
4	24	21	F	swets	29	1	colonel	5	215.0	NA
4	24	21	F	swets	29	1	who	6	200.0	NA
4	24	21	F	swets	29	1	enjoyed	7	233.0	NA
4	24	21	F	swets	29	1	himself	8	235.0	NA
4	24	21	F	swets	29	1	a	9	251.0	NA
4	24	21	F	swets	29	1	lot	10	266.0	NA
4	24	21	F	swets	29	1	was	11	234.0	NA
4	24	21	F	swets	29	1	out	12	215.0	NA
4	24	21	F	swets	29	1	on	13	284.0	NA
4	24	21	F	swets	29	1	the	14	267.0	NA
4	24	21	F	swets	29	1	balcony.	15	816.0	NA
4	24	21	F	Question	29	1	NA	NA	1367.0	0
5	24	21	F	Filler	133	7	While	1	427.0	NA
5	24	21	F	Filler	133	7	the	2	368.0	NA
5	24	21	F	Filler	133	7	lawyers	3	533.0	NA
5	24	21	F	Filler	133	7	fought	4	284.0	NA
5	24	21	F	Filler	133	7	the	5	383.0	NA
5	24	21	F	Filler	133	7	ruling	6	332.0	NA
5	24	21	F	Filler	133	7	the	7	467.0	NA
5	24	21	F	Filler	133	7	judge	8	418.0	NA
5	24	21	F	Filler	133	7	announced	9	349.0	NA
5	24	21	F	Filler	133	7	the	10	301.0	NA
5	24	21	F	Filler	133	7	decision.	11	1133.0	NA
5	24	21	F	Question	133	7	NA	NA	3234.0	1
6	24	21	F	Filler	65	4	Even	1	378.0	NA
6	24	21	F	Filler	65	4	though	2	300.0	NA
6	24	21	F	Filler	65	4	the	3	250.0	NA
6	24	21	F	Filler	65	4	goalie	4	201.0	NA
6	24	21	F	Filler	65	4	had	5	216.0	NA
6	24	21	F	Filler	65	4	a	6	201.0	NA
6	24	21	F	Filler	65	4	bad	7	215.0	NA
6	24	21	F	Filler	65	4	cold	8	517.0	NA
6	24	21	F	Filler	65	4	the	9	283.0	NA
6	24	21	F	Filler	65	4	team	10	402.0	NA
6	24	21	F	Filler	65	4	was	11	299.0	NA
6	24	21	F	Filler	65	4	preparing	12	568.0	NA
6	24	21	F	Filler	65	4	for	13	365.0	NA
6	24	21	F	Filler	65	4	the	14	300.0	NA
6	24	21	F	Filler	65	4	tournament.	15	617.0	NA
6	24	21	F	Question	65	4	NA	NA	1000.0	1
7	24	21	F	Filler	119	6	Everybody	1	411.0	NA
7	24	21	F	Filler	119	6	is	2	318.0	NA
7	24	21	F	Filler	119	6	wondering	3	234.0	NA
7	24	21	F	Filler	119	6	which	4	233.0	NA
7	24	21	F	Filler	119	6	software	5	198.0	NA
7	24	21	F	Filler	119	6	Gary	6	184.0	NA
7	24	21	F	Filler	119	6	installed	7	251.0	NA
7	24	21	F	Filler	119	6	without	8	350.0	NA
7	24	21	F	Filler	119	6	buying	9	234.0	NA
7	24	21	F	Filler	119	6	last	10	300.0	NA
7	24	21	F	Filler	119	6	June.	11	282.0	NA
7	24	21	F	Question	119	6	NA	NA	1401.0	1
8	24	21	F	Filler	47	4	The	1	629.0	NA
8	24	21	F	Filler	47	4	boys	2	365.0	NA
8	24	21	F	Filler	47	4	all	3	368.0	NA
8	24	21	F	Filler	47	4	admired	4	235.0	NA
8	24	21	F	Filler	47	4	the	5	283.0	NA
8	24	21	F	Filler	47	4	singer	6	334.0	NA
8	24	21	F	Filler	47	4	of	7	265.0	NA
8	24	21	F	Filler	47	4	the	8	250.0	NA
8	24	21	F	Filler	47	4	song	9	235.0	NA
8	24	21	F	Filler	47	4	with	10	283.0	NA
8	24	21	F	Filler	47	4	the	11	267.0	NA
8	24	21	F	Filler	47	4	long	12	316.0	NA
8	24	21	F	Filler	47	4	eyelashes.	13	250.0	NA
8	24	21	F	Question	47	4	NA	NA	3600.0	0
9	24	21	F	Filler	62	4	After	1	478.0	NA
9	24	21	F	Filler	62	4	much	2	200.0	NA
9	24	21	F	Filler	62	4	deliberation	3	200.0	NA
9	24	21	F	Filler	62	4	the	4	234.0	NA
9	24	21	F	Filler	62	4	jury	5	317.0	NA
9	24	21	F	Filler	62	4	found	6	200.0	NA
9	24	21	F	Filler	62	4	the	7	317.0	NA
9	24	21	F	Filler	62	4	defendant	8	267.0	NA
9	24	21	F	Filler	62	4	not	9	282.0	NA
9	24	21	F	Filler	62	4	guilty.	10	351.0	NA
9	24	21	F	Question	62	4	NA	NA	1867.0	1
10	24	21	F	Filler	56	4	The	1	396.0	NA
10	24	21	F	Filler	56	4	actor	2	282.0	NA
10	24	21	F	Filler	56	4	said	3	184.0	NA
10	24	21	F	Filler	56	4	the	4	284.0	NA
10	24	21	F	Filler	56	4	audiences	5	416.0	NA
10	24	21	F	Filler	56	4	believed	6	350.0	NA
10	24	21	F	Filler	56	4	the	7	283.0	NA
10	24	21	F	Filler	56	4	nasty	8	351.0	NA
10	24	21	F	Filler	56	4	remarks	9	515.0	NA
10	24	21	F	Filler	56	4	made	10	336.0	NA
10	24	21	F	Filler	56	4	by	11	300.0	NA
10	24	21	F	Filler	56	4	the	12	283.0	NA
10	24	21	F	Filler	56	4	film	13	284.0	NA
10	24	21	F	Filler	56	4	critic.	14	365.0	NA
10	24	21	F	Question	56	4	NA	NA	1751.0	0
11	24	21	F	Filler	140	7	The	1	528.0	NA
11	24	21	F	Filler	140	7	investigators	2	234.0	NA
11	24	21	F	Filler	140	7	asked	3	234.0	NA
11	24	21	F	Filler	140	7	which	4	250.0	NA
11	24	21	F	Filler	140	7	mansion	5	217.0	NA
11	24	21	F	Filler	140	7	the	6	249.0	NA
11	24	21	F	Filler	140	7	owner	7	233.0	NA
11	24	21	F	Filler	140	7	sold	8	267.0	NA
11	24	21	F	Filler	140	7	and	9	250.0	NA
11	24	21	F	Filler	140	7	didn't	10	267.0	NA
11	24	21	F	Filler	140	7	repair	11	267.0	NA
11	24	21	F	Filler	140	7	ten	12	283.0	NA
11	24	21	F	Filler	140	7	years	13	401.0	NA
11	24	21	F	Filler	140	7	ago.	14	266.0	NA
11	24	21	F	Question	140	7	NA	NA	1334.0	1
12	24	21	F	Filler	116	6	As	1	278.0	NA
12	24	21	F	Filler	116	6	the	2	185.0	NA
12	24	21	F	Filler	116	6	survivors	3	233.0	NA
12	24	21	F	Filler	116	6	were	4	299.0	NA
12	24	21	F	Filler	116	6	embracing	5	202.0	NA
12	24	21	F	Filler	116	6	the	6	149.0	NA
12	24	21	F	Filler	116	6	firefighter	7	317.0	NA
12	24	21	F	Filler	116	6	coughed	8	318.0	NA
12	24	21	F	Filler	116	6	violently.	9	367.0	NA
12	24	21	F	Question	116	6	NA	NA	2666.0	0
13	24	21	F	swets	15	2	The	1	346.0	NA
13	24	21	F	swets	15	2	husband	2	182.0	NA
13	24	21	F	swets	15	2	of	3	184.0	NA
13	24	21	F	swets	15	2	the	4	200.0	NA
13	24	21	F	swets	15	2	beautician	5	200.0	NA
13	24	21	F	swets	15	2	who	6	267.0	NA
13	24	21	F	swets	15	2	cut	7	383.0	NA
13	24	21	F	swets	15	2	herself	8	367.0	NA
13	24	21	F	swets	15	2	on	9	383.0	NA
13	24	21	F	swets	15	2	the	10	267.0	NA
13	24	21	F	swets	15	2	broken	11	199.0	NA
13	24	21	F	swets	15	2	glass	12	352.0	NA
13	24	21	F	swets	15	2	phoned	13	332.0	NA
13	24	21	F	swets	15	2	for	14	334.0	NA
13	24	21	F	swets	15	2	a	15	251.0	NA
13	24	21	F	swets	15	2	doctor.	16	417.0	NA
13	24	21	F	Question	15	2	NA	NA	1366.0	1
14	24	21	F	Filler	94	5	After	1	345.0	NA
14	24	21	F	Filler	94	5	months	2	267.0	NA
14	24	21	F	Filler	94	5	of	3	250.0	NA
14	24	21	F	Filler	94	5	preparation	4	383.0	NA
14	24	21	F	Filler	94	5	the	5	251.0	NA
14	24	21	F	Filler	94	5	ballerina	6	217.0	NA
14	24	21	F	Filler	94	5	was	7	267.0	NA
14	24	21	F	Filler	94	5	getting	8	249.0	NA
14	24	21	F	Filler	94	5	ready	9	283.0	NA
14	24	21	F	Filler	94	5	for	10	266.0	NA
14	24	21	F	Filler	94	5	opening	11	235.0	NA
14	24	21	F	Filler	94	5	night.	12	266.0	NA
14	24	21	F	Question	94	5	NA	NA	1800.0	1
15	24	21	F	Filler	124	6	The	1	346.0	NA
15	24	21	F	Filler	124	6	mothers	2	182.0	NA
15	24	21	F	Filler	124	6	and	3	267.0	NA
15	24	21	F	Filler	124	6	teachers	4	267.0	NA
15	24	21	F	Filler	124	6	played	5	317.0	NA
15	24	21	F	Filler	124	6	tennis	6	268.0	NA
15	24	21	F	Filler	124	6	after	7	316.0	NA
15	24	21	F	Filler	124	6	the	8	367.0	NA
15	24	21	F	Filler	124	6	kids	9	333.0	NA
15	24	21	F	Filler	124	6	left.	10	283.0	NA
15	24	21	F	Question	124	6	NA	NA	1101.0	1
16	24	21	F	Filler	87	5	The	1	313.0	NA
16	24	21	F	Filler	87	5	car	2	268.0	NA
16	24	21	F	Filler	87	5	chased	3	266.0	NA
16	24	21	F	Filler	87	5	the	4	249.0	NA
16	24	21	F	Filler	87	5	robber	5	234.0	NA
16	24	21	F	Filler	87	5	of	6	250.0	NA
16	24	21	F	Filler	87	5	the	7	267.0	NA
16	24	21	F	Filler	87	5	bank	8	298.0	NA
16	24	21	F	Filler	87	5	into	9	301.0	NA
16	24	21	F	Filler	87	5	a	10	217.0	NA
16	24	21	F	Filler	87	5	narrow	11	300.0	NA
16	24	21	F	Filler	87	5	alley.	12	335.0	NA
16	24	21	F	Question	87	5	NA	NA	1465.0	1
17	24	21	F	swets	26	1	The	1	529.0	NA
17	24	21	F	swets	26	1	grand-nephew	2	249.0	NA
17	24	21	F	swets	26	1	of	3	201.0	NA
17	24	21	F	swets	26	1	the	4	233.0	NA
17	24	21	F	swets	26	1	admiral	5	266.0	NA
17	24	21	F	swets	26	1	who	6	267.0	NA
17	24	21	F	swets	26	1	wrote	7	283.0	NA
17	24	21	F	swets	26	1	himself	8	385.0	NA
17	24	21	F	swets	26	1	a	9	316.0	NA
17	24	21	F	swets	26	1	note	10	302.0	NA
17	24	21	F	swets	26	1	admired	11	349.0	NA
17	24	21	F	swets	26	1	sailors	12	483.0	NA
17	24	21	F	swets	26	1	very	13	467.0	NA
17	24	21	F	swets	26	1	much.	14	267.0	NA
17	24	21	F	Question	26	1	NA	NA	1865.0	0
18	24	21	F	Filler	82	5	The	1	1379.0	NA
18	24	21	F	Filler	82	5	patient's	2	299.0	NA
18	24	21	F	Filler	82	5	seizures	3	266.0	NA
18	24	21	F	Filler	82	5	appeared	4	201.0	NA
18	24	21	F	Filler	82	5	to	5	434.0	NA
18	24	21	F	Filler	82	5	have	6	249.0	NA
18	24	21	F	Filler	82	5	been	7	166.0	NA
18	24	21	F	Filler	82	5	eliminated	8	152.0	NA
18	24	21	F	Filler	82	5	by	9	366.0	NA
18	24	21	F	Filler	82	5	the	10	184.0	NA
18	24	21	F	Filler	82	5	surgery.	11	149.0	NA
18	24	21	F	Question	82	5	NA	NA	1900.0	1
19	24	21	F	Filler	104	5	Despite	1	412.0	NA
19	24	21	F	Filler	104	5	the	2	218.0	NA
19	24	21	F	Filler	104	5	relative	3	134.0	NA
19	24	21	F	Filler	104	5	lack	4	232.0	NA
19	24	21	F	Filler	104	5	of	5	384.0	NA
19	24	21	F	Filler	104	5	rain	6	250.0	NA
19	24	21	F	Filler	104	5	the	7	449.0	NA
19	24	21	F	Filler	104	5	farmer	8	235.0	NA
19	24	21	F	Filler	104	5	harvested	9	200.0	NA
19	24	21	F	Filler	104	5	much	10	399.0	NA
19	24	21	F	Filler	104	5	wheat.	11	234.0	NA
19	24	21	F	Question	104	5	NA	NA	3033.0	1
20	24	21	F	swets	36	2	The	1	345.0	NA
20	24	21	F	swets	36	2	son	2	184.0	NA
20	24	21	F	swets	36	2	of	3	233.0	NA
20	24	21	F	swets	36	2	the	4	249.0	NA
20	24	21	F	swets	36	2	saleswoman	5	217.0	NA
20	24	21	F	swets	36	2	who	6	218.0	NA
20	24	21	F	swets	36	2	talked	7	483.0	NA
20	24	21	F	swets	36	2	to	8	433.0	NA
20	24	21	F	swets	36	2	herself	9	301.0	NA
20	24	21	F	swets	36	2	all	10	283.0	NA
20	24	21	F	swets	36	2	the	11	301.0	NA
20	24	21	F	swets	36	2	time	12	366.0	NA
20	24	21	F	swets	36	2	walked	13	301.0	NA
20	24	21	F	swets	36	2	into	14	283.0	NA
20	24	21	F	swets	36	2	the	15	232.0	NA
20	24	21	F	swets	36	2	room.	16	216.0	NA
20	24	21	F	Question	36	2	NA	NA	1735.0	1
21	24	21	F	Filler	89	5	Jim	1	530.0	NA
21	24	21	F	Filler	89	5	watered	2	250.0	NA
21	24	21	F	Filler	89	5	the	3	168.0	NA
21	24	21	F	Filler	89	5	tropical	4	417.0	NA
21	24	21	F	Filler	89	5	plants	5	664.0	NA
21	24	21	F	Filler	89	5	of	6	318.0	NA
21	24	21	F	Filler	89	5	his	7	200.0	NA
21	24	21	F	Filler	89	5	neighbor	8	183.0	NA
21	24	21	F	Filler	89	5	because	9	351.0	NA
21	24	21	F	Filler	89	5	she	10	283.0	NA
21	24	21	F	Filler	89	5	had	11	300.0	NA
21	24	21	F	Filler	89	5	gone	12	150.0	NA
21	24	21	F	Filler	89	5	out	13	134.0	NA
21	24	21	F	Filler	89	5	of	14	334.0	NA
21	24	21	F	Filler	89	5	town	15	282.0	NA
21	24	21	F	Filler	89	5	for	16	184.0	NA
21	24	21	F	Filler	89	5	a	17	251.0	NA
21	24	21	F	Filler	89	5	few	18	150.0	NA
21	24	21	F	Filler	89	5	days.	19	84.0	NA
21	24	21	F	Question	89	5	NA	NA	1999.0	1
22	24	21	F	Filler	73	5	My	1	296.0	NA
22	24	21	F	Filler	73	5	cousins	2	149.0	NA
22	24	21	F	Filler	73	5	admired	3	83.0	NA
22	24	21	F	Filler	73	5	the	4	234.0	NA
22	24	21	F	Filler	73	5	singer	5	232.0	NA
22	24	21	F	Filler	73	5	although	6	351.0	NA
22	24	21	F	Filler	73	5	she	7	151.0	NA
22	24	21	F	Filler	73	5	never	8	149.0	NA
22	24	21	F	Filler	73	5	became	9	167.0	NA
22	24	21	F	Filler	73	5	popular.	10	99.0	NA
22	24	21	F	Question	73	5	NA	NA	1901.0	1
23	24	21	F	swets	11	1	The	1	278.0	NA
23	24	21	F	swets	11	1	father	2	200.0	NA
23	24	21	F	swets	11	1	of	3	233.0	NA
23	24	21	F	swets	11	1	the	4	251.0	NA
23	24	21	F	swets	11	1	surgeon	5	1100.0	NA
23	24	21	F	swets	11	1	who	6	465.0	NA
23	24	21	F	swets	11	1	made	7	200.0	NA
23	24	21	F	swets	11	1	a	8	319.0	NA
23	24	21	F	swets	11	1	fool	9	384.0	NA
23	24	21	F	swets	11	1	of	10	267.0	NA
23	24	21	F	swets	11	1	himself	11	215.0	NA
23	24	21	F	swets	11	1	at	12	400.0	NA
23	24	21	F	swets	11	1	the	13	185.0	NA
23	24	21	F	swets	11	1	party	14	198.0	NA
23	24	21	F	swets	11	1	was	15	335.0	NA
23	24	21	F	swets	11	1	greatly	16	316.0	NA
23	24	21	F	swets	11	1	embarrassed.	17	584.0	NA
23	24	21	F	Question	11	1	NA	NA	968.0	0
24	24	21	F	Filler	120	6	Sarah	1	511.0	NA
24	24	21	F	Filler	120	6	won't	2	386.0	NA
24	24	21	F	Filler	120	6	reveal	3	265.0	NA
24	24	21	F	Filler	120	6	which	4	117.0	NA
24	24	21	F	Filler	120	6	race	5	184.0	NA
24	24	21	F	Filler	120	6	she	6	133.0	NA
24	24	21	F	Filler	120	6	won	7	149.0	NA
24	24	21	F	Filler	120	6	without	8	134.0	NA
24	24	21	F	Filler	120	6	entering	9	200.0	NA
24	24	21	F	Filler	120	6	the	10	317.0	NA
24	24	21	F	Filler	120	6	competition	11	283.0	NA
24	24	21	F	Filler	120	6	for	12	318.0	NA
24	24	21	F	Filler	120	6	officially.	13	350.0	NA
24	24	21	F	Question	120	6	NA	NA	1200.0	1
25	24	21	F	Filler	112	6	As	1	561.0	NA
25	24	21	F	Filler	112	6	the	2	135.0	NA
25	24	21	F	Filler	112	6	dog	3	150.0	NA
25	24	21	F	Filler	112	6	was	4	151.0	NA
25	24	21	F	Filler	112	6	calming	5	216.0	NA
25	24	21	F	Filler	112	6	down	6	200.0	NA
25	24	21	F	Filler	112	6	the	7	234.0	NA
25	24	21	F	Filler	112	6	puppy	8	215.0	NA
25	24	21	F	Filler	112	6	slept	9	250.0	NA
25	24	21	F	Filler	112	6	in	10	201.0	NA
25	24	21	F	Filler	112	6	the	11	267.0	NA
25	24	21	F	Filler	112	6	cage.	12	249.0	NA
25	24	21	F	Question	112	6	NA	NA	1001.0	1
26	24	21	F	Filler	39	4	The	1	362.0	NA
26	24	21	F	Filler	39	4	overweight	2	283.0	NA
26	24	21	F	Filler	39	4	aunt	3	248.0	NA
26	24	21	F	Filler	39	4	decided	4	235.0	NA
26	24	21	F	Filler	39	4	to	5	334.0	NA
26	24	21	F	Filler	39	4	make	6	249.0	NA
26	24	21	F	Filler	39	4	cookies	7	118.0	NA
26	24	21	F	Filler	39	4	and	8	182.0	NA
26	24	21	F	Filler	39	4	cupcakes	9	200.0	NA
26	24	21	F	Filler	39	4	for	10	199.0	NA
26	24	21	F	Filler	39	4	the	11	451.0	NA
26	24	21	F	Filler	39	4	dinner	12	250.0	NA
26	24	21	F	Filler	39	4	party.	13	235.0	NA
26	24	21	F	Question	39	4	NA	NA	800.0	1
27	24	21	F	swets	34	3	The	1	328.0	NA
27	24	21	F	swets	34	3	waiter	2	283.0	NA
27	24	21	F	swets	34	3	of	3	267.0	NA
27	24	21	F	swets	34	3	the	4	234.0	NA
27	24	21	F	swets	34	3	woman	5	265.0	NA
27	24	21	F	swets	34	3	who	6	218.0	NA
27	24	21	F	swets	34	3	considered	7	352.0	NA
27	24	21	F	swets	34	3	himself	8	265.0	NA
27	24	21	F	swets	34	3	a	9	201.0	NA
27	24	21	F	swets	34	3	natural	10	183.0	NA
27	24	21	F	swets	34	3	beauty	11	433.0	NA
27	24	21	F	swets	34	3	spilled	12	300.0	NA
27	24	21	F	swets	34	3	the	13	301.0	NA
27	24	21	F	swets	34	3	drinks.	14	316.0	NA
27	24	21	F	Question	34	3	NA	NA	2000.0	1
28	24	21	F	Filler	103	5	The	1	445.0	NA
28	24	21	F	Filler	103	5	desperate	2	182.0	NA
28	24	21	F	Filler	103	5	thief	3	234.0	NA
28	24	21	F	Filler	103	5	ran	4	200.0	NA
28	24	21	F	Filler	103	5	over	5	233.0	NA
28	24	21	F	Filler	103	5	a	6	201.0	NA
28	24	21	F	Filler	103	5	child	7	133.0	NA
28	24	21	F	Filler	103	5	in	8	400.0	NA
28	24	21	F	Filler	103	5	an	9	183.0	NA
28	24	21	F	Filler	103	5	attempt	10	118.0	NA
28	24	21	F	Filler	103	5	to	11	283.0	NA
28	24	21	F	Filler	103	5	dodge	12	284.0	NA
28	24	21	F	Filler	103	5	the	13	234.0	NA
28	24	21	F	Filler	103	5	cops.	14	199.0	NA
28	24	21	F	Question	103	5	NA	NA	2100.0	0
29	24	21	F	Filler	63	4	The	1	446.0	NA
29	24	21	F	Filler	63	4	bride	2	184.0	NA
29	24	21	F	Filler	63	4	was	3	167.0	NA
29	24	21	F	Filler	63	4	devastated	4	214.0	NA
29	24	21	F	Filler	63	4	to	5	151.0	NA
29	24	21	F	Filler	63	4	lose	6	151.0	NA
29	24	21	F	Filler	63	4	her	7	183.0	NA
29	24	21	F	Filler	63	4	gold	8	250.0	NA
29	24	21	F	Filler	63	4	ring	9	200.0	NA
29	24	21	F	Filler	63	4	with	10	199.0	NA
29	24	21	F	Filler	63	4	a	11	268.0	NA
29	24	21	F	Filler	63	4	gleaming	12	232.0	NA
29	24	21	F	Filler	63	4	diamond	13	167.0	NA
29	24	21	F	Filler	63	4	in	14	201.0	NA
29	24	21	F	Filler	63	4	the	15	333.0	NA
29	24	21	F	Filler	63	4	middle.	16	234.0	NA
29	24	21	F	Question	63	4	NA	NA	1567.0	1
30	24	21	F	Filler	110	6	While	1	312.0	NA
30	24	21	F	Filler	110	6	the	2	234.0	NA
30	24	21	F	Filler	110	6	lawyer	3	167.0	NA
30	24	21	F	Filler	110	6	was	4	134.0	NA
30	24	21	F	Filler	110	6	reading	5	182.0	NA
30	24	21	F	Filler	110	6	the	6	266.0	NA
30	24	21	F	Filler	110	6	will	7	134.0	NA
30	24	21	F	Filler	110	6	the	8	118.0	NA
30	24	21	F	Filler	110	6	contract	9	149.0	NA
30	24	21	F	Filler	110	6	remained	10	300.0	NA
30	24	21	F	Filler	110	6	on	11	283.0	NA
30	24	21	F	Filler	110	6	the	12	236.0	NA
30	24	21	F	Filler	110	6	desk.	13	248.0	NA
30	24	21	F	Question	110	6	NA	NA	934.0	1
31	24	21	F	Filler	60	4	The	1	347.0	NA
31	24	21	F	Filler	60	4	newlyweds	2	299.0	NA
31	24	21	F	Filler	60	4	were	3	284.0	NA
31	24	21	F	Filler	60	4	nervous	4	233.0	NA
31	24	21	F	Filler	60	4	about	5	283.0	NA
31	24	21	F	Filler	60	4	their	6	183.0	NA
31	24	21	F	Filler	60	4	new	7	267.0	NA
31	24	21	F	Filler	60	4	life	8	383.0	NA
31	24	21	F	Filler	60	4	together.	9	268.0	NA
31	24	21	F	Question	60	4	NA	NA	1132.0	1
32	24	21	F	Filler	98	5	The	1	278.0	NA
32	24	21	F	Filler	98	5	husband	2	217.0	NA
32	24	21	F	Filler	98	5	of	3	183.0	NA
32	24	21	F	Filler	98	5	the	4	168.0	NA
32	24	21	F	Filler	98	5	bestselling	5	249.0	NA
32	24	21	F	Filler	98	5	novelist	6	218.0	NA
32	24	21	F	Filler	98	5	was	7	200.0	NA
32	24	21	F	Filler	98	5	into	8	283.0	NA
32	24	21	F	Filler	98	5	collecting	9	299.0	NA
32	24	21	F	Filler	98	5	antiques.	10	301.0	NA
32	24	21	F	Question	98	5	NA	NA	1234.0	1
33	24	21	F	Filler	126	6	The	1	262.0	NA
33	24	21	F	Filler	126	6	boxes	2	200.0	NA
33	24	21	F	Filler	126	6	and	3	216.0	NA
33	24	21	F	Filler	126	6	hangers	4	216.0	NA
33	24	21	F	Filler	126	6	had	5	234.0	NA
33	24	21	F	Filler	126	6	been	6	184.0	NA
33	24	21	F	Filler	126	6	stuffed	7	233.0	NA
33	24	21	F	Filler	126	6	in	8	400.0	NA
33	24	21	F	Filler	126	6	the	9	249.0	NA
33	24	21	F	Filler	126	6	closet.	10	169.0	NA
33	24	21	F	Question	126	6	NA	NA	1500.0	1
34	24	21	F	swets	13	3	The	1	411.0	NA
34	24	21	F	swets	13	3	great-aunt	2	200.0	NA
34	24	21	F	swets	13	3	of	3	200.0	NA
34	24	21	F	swets	13	3	the	4	317.0	NA
34	24	21	F	swets	13	3	policeman	5	268.0	NA
34	24	21	F	swets	13	3	who	6	200.0	NA
34	24	21	F	swets	13	3	treated	7	248.0	NA
34	24	21	F	swets	13	3	herself	8	201.0	NA
34	24	21	F	swets	13	3	after	9	334.0	NA
34	24	21	F	swets	13	3	the	10	233.0	NA
34	24	21	F	swets	13	3	accident	11	333.0	NA
34	24	21	F	swets	13	3	was	12	333.0	NA
34	24	21	F	swets	13	3	watching	13	251.0	NA
34	24	21	F	swets	13	3	the	14	217.0	NA
34	24	21	F	swets	13	3	news.	15	182.0	NA
34	24	21	F	Question	13	3	NA	NA	1567.0	1
35	24	21	F	Filler	77	5	Outside	1	328.0	NA
35	24	21	F	Filler	77	5	the	2	183.0	NA
35	24	21	F	Filler	77	5	courthouse	3	201.0	NA
35	24	21	F	Filler	77	5	the	4	167.0	NA
35	24	21	F	Filler	77	5	committee	5	66.0	NA
35	24	21	F	Filler	77	5	awarded	6	166.0	NA
35	24	21	F	Filler	77	5	a	7	184.0	NA
35	24	21	F	Filler	77	5	lifetime	8	166.0	NA
35	24	21	F	Filler	77	5	achievement	9	201.0	NA
35	24	21	F	Filler	77	5	prize	10	183.0	NA
35	24	21	F	Filler	77	5	to	11	134.0	NA
35	24	21	F	Filler	77	5	the	12	283.0	NA
35	24	21	F	Filler	77	5	creator	13	218.0	NA
35	24	21	F	Filler	77	5	of	14	299.0	NA
35	24	21	F	Filler	77	5	the	15	284.0	NA
35	24	21	F	Filler	77	5	sculpture.	16	183.0	NA
35	24	21	F	Question	77	5	NA	NA	2216.0	1
36	24	21	F	Filler	91	5	The	1	311.0	NA
36	24	21	F	Filler	91	5	workman	2	102.0	NA
36	24	21	F	Filler	91	5	dropped	3	133.0	NA
36	24	21	F	Filler	91	5	the	4	150.0	NA
36	24	21	F	Filler	91	5	assistant	5	365.0	NA
36	24	21	F	Filler	91	5	who	6	118.0	NA
36	24	21	F	Filler	91	5	complained	7	100.0	NA
36	24	21	F	Filler	91	5	bitterly	8	65.0	NA
36	24	21	F	Filler	91	5	onto	9	117.0	NA
36	24	21	F	Filler	91	5	a	10	117.0	NA
36	24	21	F	Filler	91	5	lower	11	83.0	NA
36	24	21	F	Filler	91	5	floor.	12	166.0	NA
36	24	21	F	Question	91	5	NA	NA	1636.0	1
37	24	21	F	Filler	97	5	The	1	346.0	NA
37	24	21	F	Filler	97	5	tall	2	199.0	NA
37	24	21	F	Filler	97	5	man	3	83.0	NA
37	24	21	F	Filler	97	5	laughed	4	133.0	NA
37	24	21	F	Filler	97	5	at	5	67.0	NA
37	24	21	F	Filler	97	5	the	6	67.0	NA
37	24	21	F	Filler	97	5	clumsy	7	134.0	NA
37	24	21	F	Filler	97	5	child	8	82.0	NA
37	24	21	F	Filler	97	5	who	9	84.0	NA
37	24	21	F	Filler	97	5	spilled	10	101.0	NA
37	24	21	F	Filler	97	5	the	11	99.0	NA
37	24	21	F	Filler	97	5	milk	12	101.0	NA
37	24	21	F	Filler	97	5	on	13	81.0	NA
37	24	21	F	Filler	97	5	himself.	14	218.0	NA
37	24	21	F	Question	97	5	NA	NA	1569.0	1
38	24	21	F	Filler	121	6	The	1	260.0	NA
38	24	21	F	Filler	121	6	ecologist	2	102.0	NA
38	24	21	F	Filler	121	6	wondered	3	82.0	NA
38	24	21	F	Filler	121	6	which	4	68.0	NA
38	24	21	F	Filler	121	6	plants	5	66.0	NA
38	24	21	F	Filler	121	6	the	6	100.0	NA
38	24	21	F	Filler	121	6	scientist	7	100.0	NA
38	24	21	F	Filler	121	6	grew	8	184.0	NA
38	24	21	F	Filler	121	6	but	9	116.0	NA
38	24	21	F	Filler	121	6	didn't	10	117.0	NA
38	24	21	F	Filler	121	6	modify	11	117.0	NA
38	24	21	F	Filler	121	6	the	12	101.0	NA
38	24	21	F	Filler	121	6	seeds	13	116.0	NA
38	24	21	F	Filler	121	6	of	14	150.0	NA
38	24	21	F	Filler	121	6	in	15	200.0	NA
38	24	21	F	Filler	121	6	the	16	84.0	NA
38	24	21	F	Filler	121	6	lab.	17	165.0	NA
38	24	21	F	Question	121	6	NA	NA	1201.0	1
39	24	21	F	Filler	138	7	While	1	262.0	NA
39	24	21	F	Filler	138	7	Pedro	2	283.0	NA
39	24	21	F	Filler	138	7	was	3	117.0	NA
39	24	21	F	Filler	138	7	swimming	4	100.0	NA
39	24	21	F	Filler	138	7	the	5	66.0	NA
39	24	21	F	Filler	138	7	lifeguard	6	85.0	NA
39	24	21	F	Filler	138	7	sat	7	100.0	NA
39	24	21	F	Filler	138	7	in	8	83.0	NA
39	24	21	F	Filler	138	7	his	9	83.0	NA
39	24	21	F	Filler	138	7	chair.	10	267.0	NA
39	24	21	F	Question	138	7	NA	NA	3000.0	1
40	24	21	F	Filler	85	5	The	1	277.0	NA
40	24	21	F	Filler	85	5	college	2	84.0	NA
40	24	21	F	Filler	85	5	students	3	84.0	NA
40	24	21	F	Filler	85	5	were	4	50.0	NA
40	24	21	F	Filler	85	5	upset	5	66.0	NA
40	24	21	F	Filler	85	5	that	6	66.0	NA
40	24	21	F	Filler	85	5	they	7	84.0	NA
40	24	21	F	Filler	85	5	had	8	84.0	NA
40	24	21	F	Filler	85	5	an	9	99.0	NA
40	24	21	F	Filler	85	5	exam	10	99.0	NA
40	24	21	F	Filler	85	5	the	11	67.0	NA
40	24	21	F	Filler	85	5	next	12	200.0	NA
40	24	21	F	Filler	85	5	day.	13	118.0	NA
40	24	21	F	Question	85	5	NA	NA	1135.0	0
41	24	21	F	Filler	130	7	While	1	394.0	NA
41	24	21	F	Filler	130	7	Margo	2	118.0	NA
41	24	21	F	Filler	130	7	bathed	3	66.0	NA
41	24	21	F	Filler	130	7	the	4	84.0	NA
41	24	21	F	Filler	130	7	dog	5	84.0	NA
41	24	21	F	Filler	130	7	barked	6	132.0	NA
41	24	21	F	Filler	130	7	in	7	67.0	NA
41	24	21	F	Filler	130	7	the	8	84.0	NA
41	24	21	F	Filler	130	7	yard.	9	150.0	NA
41	24	21	F	Question	130	7	NA	NA	2000.0	1
42	24	21	F	swets	16	3	The	1	295.0	NA
42	24	21	F	swets	16	3	widow	2	118.0	NA
42	24	21	F	swets	16	3	of	3	99.0	NA
42	24	21	F	swets	16	3	the	4	100.0	NA
42	24	21	F	swets	16	3	general	5	99.0	NA
42	24	21	F	swets	16	3	who	6	85.0	NA
42	24	21	F	swets	16	3	sacrificed	7	81.0	NA
42	24	21	F	swets	16	3	herself	8	103.0	NA
42	24	21	F	swets	16	3	for	9	100.0	NA
42	24	21	F	swets	16	3	the	10	83.0	NA
42	24	21	F	swets	16	3	cause	11	133.0	NA
42	24	21	F	swets	16	3	was	12	84.0	NA
42	24	21	F	swets	16	3	the	13	300.0	NA
42	24	21	F	swets	16	3	subject	14	183.0	NA
42	24	21	F	swets	16	3	of	15	133.0	NA
42	24	21	F	swets	16	3	the	16	133.0	NA
42	24	21	F	swets	16	3	biography.	17	101.0	NA
42	24	21	F	Question	16	3	NA	NA	2333.0	1
43	24	21	F	Filler	107	5	The	1	362.0	NA
43	24	21	F	Filler	107	5	citizens	2	165.0	NA
43	24	21	F	Filler	107	5	were	3	85.0	NA
43	24	21	F	Filler	107	5	dissatisfied	4	100.0	NA
43	24	21	F	Filler	107	5	with	5	117.0	NA
43	24	21	F	Filler	107	5	the	6	282.0	NA
43	24	21	F	Filler	107	5	mayor	7	84.0	NA
43	24	21	F	Filler	107	5	of	8	117.0	NA
43	24	21	F	Filler	107	5	town	9	133.0	NA
43	24	21	F	Filler	107	5	because	10	134.0	NA
43	24	21	F	Filler	107	5	he	11	82.0	NA
43	24	21	F	Filler	107	5	had	12	100.0	NA
43	24	21	F	Filler	107	5	little	13	134.0	NA
43	24	21	F	Filler	107	5	experience.	14	133.0	NA
43	24	21	F	Question	107	5	NA	NA	1301.0	1
44	24	21	F	swets	7	3	The	1	295.0	NA
44	24	21	F	swets	7	3	nephew	2	183.0	NA
44	24	21	F	swets	7	3	of	3	100.0	NA
44	24	21	F	swets	7	3	the	4	83.0	NA
44	24	21	F	swets	7	3	waitress	5	99.0	NA
44	24	21	F	swets	7	3	who	6	101.0	NA
44	24	21	F	swets	7	3	hurt	7	67.0	NA
44	24	21	F	swets	7	3	himself	8	99.0	NA
44	24	21	F	swets	7	3	on	9	134.0	NA
44	24	21	F	swets	7	3	the	10	100.0	NA
44	24	21	F	swets	7	3	bicycle	11	151.0	NA
44	24	21	F	swets	7	3	was	12	133.0	NA
44	24	21	F	swets	7	3	angry	13	117.0	NA
44	24	21	F	swets	7	3	about	14	150.0	NA
44	24	21	F	swets	7	3	the	15	134.0	NA
44	24	21	F	swets	7	3	incident.	16	133.0	NA
44	24	21	F	Question	7	3	NA	NA	2334.0	1
45	24	21	F	Filler	40	4	The	1	479.0	NA
45	24	21	F	Filler	40	4	boy's	2	167.0	NA
45	24	21	F	Filler	40	4	mother	3	149.0	NA
45	24	21	F	Filler	40	4	was	4	199.0	NA
45	24	21	F	Filler	40	4	very	5	85.0	NA
45	24	21	F	Filler	40	4	happy	6	117.0	NA
45	24	21	F	Filler	40	4	to	7	150.0	NA
45	24	21	F	Filler	40	4	see	8	317.0	NA
45	24	21	F	Filler	40	4	good	9	148.0	NA
45	24	21	F	Filler	40	4	grades	10	67.0	NA
45	24	21	F	Filler	40	4	on	11	151.0	NA
45	24	21	F	Filler	40	4	his	12	100.0	NA
45	24	21	F	Filler	40	4	report	13	149.0	NA
45	24	21	F	Filler	40	4	card.	14	350.0	NA
45	24	21	F	Question	40	4	NA	NA	1601.0	1
46	24	21	F	swets	9	2	The	1	294.0	NA
46	24	21	F	swets	9	2	father	2	118.0	NA
46	24	21	F	swets	9	2	of	3	98.0	NA
46	24	21	F	swets	9	2	the	4	85.0	NA
46	24	21	F	swets	9	2	schoolgirl	5	99.0	NA
46	24	21	F	swets	9	2	who	6	100.0	NA
46	24	21	F	swets	9	2	burned	7	84.0	NA
46	24	21	F	swets	9	2	herself	8	84.0	NA
46	24	21	F	swets	9	2	the	9	116.0	NA
46	24	21	F	swets	9	2	other	10	116.0	NA
46	24	21	F	swets	9	2	day	11	101.0	NA
46	24	21	F	swets	9	2	was	12	83.0	NA
46	24	21	F	swets	9	2	usually	13	201.0	NA
46	24	21	F	swets	9	2	very	14	134.0	NA
46	24	21	F	swets	9	2	careful.	15	134.0	NA
46	24	21	F	Question	9	2	NA	NA	1998.0	1
47	24	21	F	Filler	76	5	After	1	411.0	NA
47	24	21	F	Filler	76	5	fifty	2	118.0	NA
47	24	21	F	Filler	76	5	years	3	116.0	NA
47	24	21	F	Filler	76	5	of	4	117.0	NA
47	24	21	F	Filler	76	5	marriage	5	100.0	NA
47	24	21	F	Filler	76	5	the	6	102.0	NA
47	24	21	F	Filler	76	5	old	7	132.0	NA
47	24	21	F	Filler	76	5	couple	8	116.0	NA
47	24	21	F	Filler	76	5	still	9	101.0	NA
47	24	21	F	Filler	76	5	felt	10	134.0	NA
47	24	21	F	Filler	76	5	the	11	83.0	NA
47	24	21	F	Filler	76	5	same	12	182.0	NA
47	24	21	F	Filler	76	5	about	13	201.0	NA
47	24	21	F	Filler	76	5	each	14	133.0	NA
47	24	21	F	Filler	76	5	other	15	250.0	NA
47	24	21	F	Filler	76	5	as	16	184.0	NA
47	24	21	F	Filler	76	5	they	17	184.0	NA
47	24	21	F	Filler	76	5	had	18	100.0	NA
47	24	21	F	Filler	76	5	on	19	150.0	NA
47	24	21	F	Filler	76	5	their	20	300.0	NA
47	24	21	F	Filler	76	5	wedding	21	183.0	NA
47	24	21	F	Filler	76	5	day.	22	316.0	NA
47	24	21	F	Question	76	5	NA	NA	1518.0	1
48	24	21	F	swets	1	3	The	1	46.0	NA
48	24	21	F	swets	1	3	brother	2	100.0	NA
48	24	21	F	swets	1	3	of	3	133.0	NA
48	24	21	F	swets	1	3	the	4	133.0	NA
48	24	21	F	swets	1	3	actress	5	101.0	NA
48	24	21	F	swets	1	3	who	6	99.0	NA
48	24	21	F	swets	1	3	called	7	101.0	NA
48	24	21	F	swets	1	3	attention	8	83.0	NA
48	24	21	F	swets	1	3	to	9	233.0	NA
48	24	21	F	swets	1	3	himself	10	166.0	NA
48	24	21	F	swets	1	3	on	11	67.0	NA
48	24	21	F	swets	1	3	the	12	101.0	NA
48	24	21	F	swets	1	3	balcony	13	167.0	NA
48	24	21	F	swets	1	3	was	14	116.0	NA
48	24	21	F	swets	1	3	under	15	150.0	NA
48	24	21	F	swets	1	3	investigation.	16	50.0	NA
48	24	21	F	Question	1	3	NA	NA	1434.0	0
49	24	21	F	Filler	129	7	While	1	446.0	NA
49	24	21	F	Filler	129	7	Scott	2	185.0	NA
49	24	21	F	Filler	129	7	vacuumed	3	131.0	NA
49	24	21	F	Filler	129	7	the	4	101.0	NA
49	24	21	F	Filler	129	7	carpet	5	101.0	NA
49	24	21	F	Filler	129	7	the	6	115.0	NA
49	24	21	F	Filler	129	7	drapes	7	101.0	NA
49	24	21	F	Filler	129	7	flapped	8	133.0	NA
49	24	21	F	Filler	129	7	in	9	183.0	NA
49	24	21	F	Filler	129	7	the	10	134.0	NA
49	24	21	F	Filler	129	7	breeze.	11	167.0	NA
49	24	21	F	Question	129	7	NA	NA	1665.0	1
50	24	21	F	swets	24	2	The	1	312.0	NA
50	24	21	F	swets	24	2	daughter	2	232.0	NA
50	24	21	F	swets	24	2	of	3	102.0	NA
50	24	21	F	swets	24	2	the	4	133.0	NA
50	24	21	F	swets	24	2	chaplain	5	166.0	NA
50	24	21	F	swets	24	2	who	6	83.0	NA
50	24	21	F	swets	24	2	drew	7	118.0	NA
50	24	21	F	swets	24	2	attention	8	149.0	NA
50	24	21	F	swets	24	2	to	9	117.0	NA
50	24	21	F	swets	24	2	himself	10	117.0	NA
50	24	21	F	swets	24	2	all	11	117.0	NA
50	24	21	F	swets	24	2	the	12	534.0	NA
50	24	21	F	swets	24	2	time	13	198.0	NA
50	24	21	F	swets	24	2	hated	14	118.0	NA
50	24	21	F	swets	24	2	small	15	167.0	NA
50	24	21	F	swets	24	2	children.	16	268.0	NA
50	24	21	F	Question	24	2	NA	NA	1599.0	1
51	24	21	F	Filler	93	5	The	1	562.0	NA
51	24	21	F	Filler	93	5	new	2	166.0	NA
51	24	21	F	Filler	93	5	book	3	133.0	NA
51	24	21	F	Filler	93	5	replaced	4	150.0	NA
51	24	21	F	Filler	93	5	the	5	169.0	NA
51	24	21	F	Filler	93	5	work	6	149.0	NA
51	24	21	F	Filler	93	5	of	7	133.0	NA
51	24	21	F	Filler	93	5	the	8	300.0	NA
51	24	21	F	Filler	93	5	leaders	9	151.0	NA
51	24	21	F	Filler	93	5	in	10	183.0	NA
51	24	21	F	Filler	93	5	the	11	151.0	NA
51	24	21	F	Filler	93	5	field	12	366.0	NA
51	24	21	F	Filler	93	5	of	13	166.0	NA
51	24	21	F	Filler	93	5	physical	14	218.0	NA
51	24	21	F	Filler	93	5	chemistry.	15	316.0	NA
51	24	21	F	Question	93	5	NA	NA	1067.0	1
52	24	21	F	Filler	117	6	While	1	296.0	NA
52	24	21	F	Filler	117	6	Mike	2	232.0	NA
52	24	21	F	Filler	117	6	coughed	3	102.0	NA
52	24	21	F	Filler	117	6	Janet	4	148.0	NA
52	24	21	F	Filler	117	6	went	5	84.0	NA
52	24	21	F	Filler	117	6	out	6	317.0	NA
52	24	21	F	Filler	117	6	to	7	182.0	NA
52	24	21	F	Filler	117	6	get	8	151.0	NA
52	24	21	F	Filler	117	6	some	9	168.0	NA
52	24	21	F	Filler	117	6	cough	10	100.0	NA
52	24	21	F	Filler	117	6	medicine.	11	231.0	NA
52	24	21	F	Question	117	6	NA	NA	1534.0	1
53	24	21	F	Filler	125	6	The	1	461.0	NA
53	24	21	F	Filler	125	6	bosses	2	98.0	NA
53	24	21	F	Filler	125	6	and	3	84.0	NA
53	24	21	F	Filler	125	6	secretaries	4	100.0	NA
53	24	21	F	Filler	125	6	took	5	68.0	NA
53	24	21	F	Filler	125	6	a	6	99.0	NA
53	24	21	F	Filler	125	6	long	7	100.0	NA
53	24	21	F	Filler	125	6	lunch	8	99.0	NA
53	24	21	F	Filler	125	6	together	9	68.0	NA
53	24	21	F	Filler	125	6	every	10	250.0	NA
53	24	21	F	Filler	125	6	Friday.	11	199.0	NA
53	24	21	F	Question	125	6	NA	NA	1401.0	1
54	24	21	F	Filler	92	5	The	1	345.0	NA
54	24	21	F	Filler	92	5	personal	2	166.0	NA
54	24	21	F	Filler	92	5	trainer	3	84.0	NA
54	24	21	F	Filler	92	5	was	4	99.0	NA
54	24	21	F	Filler	92	5	popular	5	335.0	NA
54	24	21	F	Filler	92	5	among	6	149.0	NA
54	24	21	F	Filler	92	5	athletes	7	216.0	NA
54	24	21	F	Filler	92	5	after	8	218.0	NA
54	24	21	F	Filler	92	5	he	9	168.0	NA
54	24	21	F	Filler	92	5	helped	10	150.0	NA
54	24	21	F	Filler	92	5	the	11	134.0	NA
54	24	21	F	Filler	92	5	bodybuilder	12	132.0	NA
54	24	21	F	Filler	92	5	win	13	285.0	NA
54	24	21	F	Filler	92	5	the	14	182.0	NA
54	24	21	F	Filler	92	5	competition.	15	150.0	NA
54	24	21	F	Question	92	5	NA	NA	1766.0	1
55	24	21	F	swets	31	3	The	1	328.0	NA
55	24	21	F	swets	31	3	aunt	2	134.0	NA
55	24	21	F	swets	31	3	of	3	100.0	NA
55	24	21	F	swets	31	3	the	4	84.0	NA
55	24	21	F	swets	31	3	milkman	5	100.0	NA
55	24	21	F	swets	31	3	who	6	83.0	NA
55	24	21	F	swets	31	3	had	7	100.0	NA
55	24	21	F	swets	31	3	to	8	117.0	NA
55	24	21	F	swets	31	3	support	9	133.0	NA
55	24	21	F	swets	31	3	herself	10	150.0	NA
55	24	21	F	swets	31	3	with	11	100.0	NA
55	24	21	F	swets	31	3	a	12	100.0	NA
55	24	21	F	swets	31	3	low	13	116.0	NA
55	24	21	F	swets	31	3	income	14	168.0	NA
55	24	21	F	swets	31	3	liked	15	100.0	NA
55	24	21	F	swets	31	3	to	16	133.0	NA
55	24	21	F	swets	31	3	fish.	17	383.0	NA
55	24	21	F	Question	31	3	NA	NA	1702.0	0
56	24	21	F	Filler	84	5	While	1	312.0	NA
56	24	21	F	Filler	84	5	talking	2	265.0	NA
56	24	21	F	Filler	84	5	to	3	85.0	NA
56	24	21	F	Filler	84	5	his	4	99.0	NA
56	24	21	F	Filler	84	5	sister	5	67.0	NA
56	24	21	F	Filler	84	5	the	6	84.0	NA
56	24	21	F	Filler	84	5	bishop	7	200.0	NA
56	24	21	F	Filler	84	5	with	8	117.0	NA
56	24	21	F	Filler	84	5	the	9	66.0	NA
56	24	21	F	Filler	84	5	funny	10	83.0	NA
56	24	21	F	Filler	84	5	eyebrows	11	133.0	NA
56	24	21	F	Filler	84	5	advocated	12	35.0	NA
56	24	21	F	Filler	84	5	strange	13	100.0	NA
56	24	21	F	Filler	84	5	beliefs.	14	133.0	NA
56	24	21	F	Question	84	5	NA	NA	2065.0	1
57	24	21	F	Filler	139	7	Laurie	1	594.0	NA
57	24	21	F	Filler	139	7	asked	2	168.0	NA
57	24	21	F	Filler	139	7	which	3	185.0	NA
57	24	21	F	Filler	139	7	truck	4	165.0	NA
57	24	21	F	Filler	139	7	the	5	118.0	NA
57	24	21	F	Filler	139	7	dealership	6	167.0	NA
57	24	21	F	Filler	139	7	sold	7	299.0	NA
57	24	21	F	Filler	139	7	but	8	167.0	NA
57	24	21	F	Filler	139	7	didn't	9	167.0	NA
57	24	21	F	Filler	139	7	paint	10	249.0	NA
57	24	21	F	Filler	139	7	completely.	11	168.0	NA
57	24	21	F	Question	139	7	NA	NA	1098.0	1
58	24	21	F	Filler	143	7	The	1	295.0	NA
58	24	21	F	Filler	143	7	lawyer	2	150.0	NA
58	24	21	F	Filler	143	7	and	3	150.0	NA
58	24	21	F	Filler	143	7	defendant	4	34.0	NA
58	24	21	F	Filler	143	7	whispered	5	99.0	NA
58	24	21	F	Filler	143	7	furiously	6	132.0	NA
58	24	21	F	Filler	143	7	during	7	102.0	NA
58	24	21	F	Filler	143	7	the	8	150.0	NA
58	24	21	F	Filler	143	7	recess.	9	383.0	NA
58	24	21	F	Question	143	7	NA	NA	1499.0	1
59	24	21	F	Filler	135	7	While	1	295.0	NA
59	24	21	F	Filler	135	7	Donna	2	133.0	NA
59	24	21	F	Filler	135	7	and	3	133.0	NA
59	24	21	F	Filler	135	7	Scott	4	84.0	NA
59	24	21	F	Filler	135	7	met	5	83.0	NA
59	24	21	F	Filler	135	7	their	6	100.0	NA
59	24	21	F	Filler	135	7	agent	7	84.0	NA
59	24	21	F	Filler	135	7	some	8	116.0	NA
59	24	21	F	Filler	135	7	friends	9	83.0	NA
59	24	21	F	Filler	135	7	called	10	67.0	NA
59	24	21	F	Filler	135	7	and	11	83.0	NA
59	24	21	F	Filler	135	7	left	12	100.0	NA
59	24	21	F	Filler	135	7	a	13	101.0	NA
59	24	21	F	Filler	135	7	message.	14	67.0	NA
59	24	21	F	Question	135	7	NA	NA	2667.0	0
60	24	21	F	Filler	44	4	The	1	362.0	NA
60	24	21	F	Filler	44	4	solicitor	2	149.0	NA
60	24	21	F	Filler	44	4	wearing	3	134.0	NA
60	24	21	F	Filler	44	4	the	4	117.0	NA
60	24	21	F	Filler	44	4	new	5	133.0	NA
60	24	21	F	Filler	44	4	tuxedo	6	150.0	NA
60	24	21	F	Filler	44	4	bothered	7	99.0	NA
60	24	21	F	Filler	44	4	a	8	136.0	NA
60	24	21	F	Filler	44	4	man	9	217.0	NA
60	24	21	F	Filler	44	4	from	10	233.0	NA
60	24	21	F	Filler	44	4	New	11	183.0	NA
60	24	21	F	Filler	44	4	York.	12	267.0	NA
60	24	21	F	Question	44	4	NA	NA	1199.0	0
61	24	21	F	swets	28	3	The	1	296.0	NA
61	24	21	F	swets	28	3	nephew	2	99.0	NA
61	24	21	F	swets	28	3	of	3	100.0	NA
61	24	21	F	swets	28	3	the	4	218.0	NA
61	24	21	F	swets	28	3	baroness	5	98.0	NA
61	24	21	F	swets	28	3	who	6	50.0	NA
61	24	21	F	swets	28	3	admired	7	102.0	NA
61	24	21	F	swets	28	3	himself	8	115.0	NA
61	24	21	F	swets	28	3	an	9	84.0	NA
61	24	21	F	swets	28	3	inordinate	10	83.0	NA
61	24	21	F	swets	28	3	amount	11	101.0	NA
61	24	21	F	swets	28	3	enjoyed	12	300.0	NA
61	24	21	F	swets	28	3	all	13	134.0	NA
61	24	21	F	swets	28	3	the	14	266.0	NA
61	24	21	F	swets	28	3	attention.	15	199.0	NA
61	24	21	F	Question	28	3	NA	NA	1099.0	1
62	24	21	F	Filler	53	4	The	1	345.0	NA
62	24	21	F	Filler	53	4	clay	2	183.0	NA
62	24	21	F	Filler	53	4	pot	3	117.0	NA
62	24	21	F	Filler	53	4	was	4	134.0	NA
62	24	21	F	Filler	53	4	full	5	199.0	NA
62	24	21	F	Filler	53	4	of	6	149.0	NA
62	24	21	F	Filler	53	4	gold	7	167.0	NA
62	24	21	F	Filler	53	4	coins	8	100.0	NA
62	24	21	F	Filler	53	4	and	9	183.0	NA
62	24	21	F	Filler	53	4	the	10	100.0	NA
62	24	21	F	Filler	53	4	thief	11	149.0	NA
62	24	21	F	Filler	53	4	knew	12	101.0	NA
62	24	21	F	Filler	53	4	he	13	150.0	NA
62	24	21	F	Filler	53	4	had	14	133.0	NA
62	24	21	F	Filler	53	4	finally	15	101.0	NA
62	24	21	F	Filler	53	4	hit	16	150.0	NA
62	24	21	F	Filler	53	4	the	17	135.0	NA
62	24	21	F	Filler	53	4	jackpot.	18	233.0	NA
62	24	21	F	Question	53	4	NA	NA	1566.0	1
63	24	21	F	Filler	46	4	The	1	761.0	NA
63	24	21	F	Filler	46	4	preacher	2	151.0	NA
63	24	21	F	Filler	46	4	of	3	102.0	NA
63	24	21	F	Filler	46	4	the	4	115.0	NA
63	24	21	F	Filler	46	4	congregation	5	268.0	NA
63	24	21	F	Filler	46	4	had	6	115.0	NA
63	24	21	F	Filler	46	4	given	7	217.0	NA
63	24	21	F	Filler	46	4	a	8	184.0	NA
63	24	21	F	Filler	46	4	sermon	9	166.0	NA
63	24	21	F	Filler	46	4	at	10	217.0	NA
63	24	21	F	Filler	46	4	a	11	184.0	NA
63	24	21	F	Filler	46	4	local	12	166.0	NA
63	24	21	F	Filler	46	4	school.	13	166.0	NA
63	24	21	F	Question	46	4	NA	NA	2102.0	1
64	24	21	F	Filler	99	5	The	1	712.0	NA
64	24	21	F	Filler	99	5	daring	2	299.0	NA
64	24	21	F	Filler	99	5	photographer	3	168.0	NA
64	24	21	F	Filler	99	5	captured	4	234.0	NA
64	24	21	F	Filler	99	5	the	5	199.0	NA
64	24	21	F	Filler	99	5	image	6	184.0	NA
64	24	21	F	Filler	99	5	of	7	165.0	NA
64	24	21	F	Filler	99	5	the	8	151.0	NA
64	24	21	F	Filler	99	5	destruction	9	200.0	NA
64	24	21	F	Filler	99	5	as	10	184.0	NA
64	24	21	F	Filler	99	5	it	11	200.0	NA
64	24	21	F	Filler	99	5	devastated	12	301.0	NA
64	24	21	F	Filler	99	5	the	13	317.0	NA
64	24	21	F	Filler	99	5	village.	14	399.0	NA
64	24	21	F	Question	99	5	NA	NA	1700.0	1
65	24	21	F	Filler	106	5	On	1	478.0	NA
65	24	21	F	Filler	106	5	the	2	217.0	NA
65	24	21	F	Filler	106	5	last	3	167.0	NA
65	24	21	F	Filler	106	5	night	4	132.0	NA
65	24	21	F	Filler	106	5	of	5	151.0	NA
65	24	21	F	Filler	106	5	summer	6	134.0	NA
65	24	21	F	Filler	106	5	camp	7	116.0	NA
65	24	21	F	Filler	106	5	the	8	150.0	NA
65	24	21	F	Filler	106	5	counselors	9	168.0	NA
65	24	21	F	Filler	106	5	let	10	383.0	NA
65	24	21	F	Filler	106	5	the	11	182.0	NA
65	24	21	F	Filler	106	5	children	12	166.0	NA
65	24	21	F	Filler	106	5	stay	13	150.0	NA
65	24	21	F	Filler	106	5	up	14	167.0	NA
65	24	21	F	Filler	106	5	until	15	168.0	NA
65	24	21	F	Filler	106	5	midnight.	16	266.0	NA
65	24	21	F	Question	106	5	NA	NA	2518.0	1
66	24	21	F	Filler	115	6	As	1	445.0	NA
66	24	21	F	Filler	115	6	Elaine	2	200.0	NA
66	24	21	F	Filler	115	6	and	3	134.0	NA
66	24	21	F	Filler	115	6	Robert	4	167.0	NA
66	24	21	F	Filler	115	6	fought	5	168.0	NA
66	24	21	F	Filler	115	6	the	6	183.0	NA
66	24	21	F	Filler	115	6	mosquitoes	7	165.0	NA
66	24	21	F	Filler	115	6	whined	8	350.0	NA
66	24	21	F	Filler	115	6	annoyingly.	9	134.0	NA
66	24	21	F	Question	115	6	NA	NA	1967.0	1
67	24	21	F	swets	18	2	The	1	2646.0	NA
67	24	21	F	swets	18	2	niece	2	98.0	NA
67	24	21	F	swets	18	2	of	3	117.0	NA
67	24	21	F	swets	18	2	the	4	85.0	NA
67	24	21	F	swets	18	2	fisherman	5	83.0	NA
67	24	21	F	swets	18	2	who	6	84.0	NA
67	24	21	F	swets	18	2	drowned	7	65.0	NA
67	24	21	F	swets	18	2	himself	8	84.0	NA
67	24	21	F	swets	18	2	in	9	201.0	NA
67	24	21	F	swets	18	2	the	10	99.0	NA
67	24	21	F	swets	18	2	ocean	11	67.0	NA
67	24	21	F	swets	18	2	didn't	12	134.0	NA
67	24	21	F	swets	18	2	know	13	83.0	NA
67	24	21	F	swets	18	2	about	14	101.0	NA
67	24	21	F	swets	18	2	the	15	100.0	NA
67	24	21	F	swets	18	2	tricky	16	99.0	NA
67	24	21	F	swets	18	2	current.	17	101.0	NA
67	24	21	F	Question	18	2	NA	NA	1399.0	1
68	24	21	F	Filler	128	7	While	1	328.0	NA
68	24	21	F	Filler	128	7	the	2	100.0	NA
68	24	21	F	Filler	128	7	man	3	84.0	NA
68	24	21	F	Filler	128	7	was	4	102.0	NA
68	24	21	F	Filler	128	7	walking	5	66.0	NA
68	24	21	F	Filler	128	7	the	6	133.0	NA
68	24	21	F	Filler	128	7	poodle	7	116.0	NA
68	24	21	F	Filler	128	7	barked	8	101.0	NA
68	24	21	F	Filler	128	7	loudly.	9	99.0	NA
68	24	21	F	Question	128	7	NA	NA	1866.0	0
69	24	21	F	swets	12	2	The	1	2696.0	NA
69	24	21	F	swets	12	2	son	2	232.0	NA
69	24	21	F	swets	12	2	of	3	201.0	NA
69	24	21	F	swets	12	2	the	4	368.0	NA
69	24	21	F	swets	12	2	princess	5	166.0	NA
69	24	21	F	swets	12	2	who	6	184.0	NA
69	24	21	F	swets	12	2	scratched	7	133.0	NA
69	24	21	F	swets	12	2	himself	8	116.0	NA
69	24	21	F	swets	12	2	in	9	117.0	NA
69	24	21	F	swets	12	2	public	10	267.0	NA
69	24	21	F	swets	12	2	was	11	217.0	NA
69	24	21	F	swets	12	2	terribly	12	166.0	NA
69	24	21	F	swets	12	2	humiliated.	13	201.0	NA
69	24	21	F	Question	12	2	NA	NA	2066.0	0
70	24	21	F	Filler	131	7	While	1	262.0	NA
70	24	21	F	Filler	131	7	Jamie	2	201.0	NA
70	24	21	F	Filler	131	7	dried	3	149.0	NA
70	24	21	F	Filler	131	7	off	4	183.0	NA
70	24	21	F	Filler	131	7	the	5	152.0	NA
70	24	21	F	Filler	131	7	table	6	133.0	NA
70	24	21	F	Filler	131	7	his	7	199.0	NA
70	24	21	F	Filler	131	7	sunglasses	8	168.0	NA
70	24	21	F	Filler	131	7	disappeared.	9	433.0	NA
70	24	21	F	Question	131	7	NA	NA	2266.0	1
71	24	21	F	swets	33	2	The	1	328.0	NA
71	24	21	F	swets	33	2	maid	2	200.0	NA
71	24	21	F	swets	33	2	of	3	149.0	NA
71	24	21	F	swets	33	2	the	4	118.0	NA
71	24	21	F	swets	33	2	actor	5	100.0	NA
71	24	21	F	swets	33	2	who	6	117.0	NA
71	24	21	F	swets	33	2	did	7	350.0	NA
71	24	21	F	swets	33	2	not	8	132.0	NA
71	24	21	F	swets	33	2	like	9	117.0	NA
71	24	21	F	swets	33	2	himself	10	101.0	NA
71	24	21	F	swets	33	2	very	11	315.0	NA
71	24	21	F	swets	33	2	much	12	168.0	NA
71	24	21	F	swets	33	2	caught	13	399.0	NA
71	24	21	F	swets	33	2	the	14	168.0	NA
71	24	21	F	swets	33	2	armed	15	133.0	NA
71	24	21	F	swets	33	2	robber.	16	166.0	NA
71	24	21	F	Question	33	2	NA	NA	2368.0	0
72	24	21	F	Filler	118	6	As	1	1196.0	NA
72	24	21	F	Filler	118	6	the	2	216.0	NA
72	24	21	F	Filler	118	6	dog	3	117.0	NA
72	24	21	F	Filler	118	6	ran	4	83.0	NA
72	24	21	F	Filler	118	6	Wanda	5	132.0	NA
72	24	21	F	Filler	118	6	watched	6	134.0	NA
72	24	21	F	Filler	118	6	from	7	118.0	NA
72	24	21	F	Filler	118	6	the	8	149.0	NA
72	24	21	F	Filler	118	6	window.	9	84.0	NA
72	24	21	F	Question	118	6	NA	NA	1366.0	1
73	24	21	F	Filler	90	5	The	1	311.0	NA
73	24	21	F	Filler	90	5	artist	2	84.0	NA
73	24	21	F	Filler	90	5	was	3	100.0	NA
73	24	21	F	Filler	90	5	not	4	83.0	NA
73	24	21	F	Filler	90	5	satisfied	5	350.0	NA
73	24	21	F	Filler	90	5	with	6	117.0	NA
73	24	21	F	Filler	90	5	his	7	83.0	NA
73	24	21	F	Filler	90	5	painting	8	100.0	NA
73	24	21	F	Filler	90	5	because	9	99.0	NA
73	24	21	F	Filler	90	5	the	10	185.0	NA
73	24	21	F	Filler	90	5	shading	11	183.0	NA
73	24	21	F	Filler	90	5	was	12	132.0	NA
73	24	21	F	Filler	90	5	off.	13	184.0	NA
73	24	21	F	Question	90	5	NA	NA	2566.0	1
74	24	21	F	Filler	45	4	The	1	411.0	NA
74	24	21	F	Filler	45	4	plumber	2	167.0	NA
74	24	21	F	Filler	45	4	repaired	3	84.0	NA
74	24	21	F	Filler	45	4	the	4	50.0	NA
74	24	21	F	Filler	45	4	sink	5	183.0	NA
74	24	21	F	Filler	45	4	of	6	100.0	NA
74	24	21	F	Filler	45	4	the	7	68.0	NA
74	24	21	F	Filler	45	4	tenant	8	85.0	NA
74	24	21	F	Filler	45	4	because	9	99.0	NA
74	24	21	F	Filler	45	4	he	10	84.0	NA
74	24	21	F	Filler	45	4	had	11	67.0	NA
74	24	21	F	Filler	45	4	just	12	49.0	NA
74	24	21	F	Filler	45	4	moved	13	17.0	NA
74	24	21	F	Filler	45	4	in.	14	117.0	NA
74	24	21	F	Question	45	4	NA	NA	1065.0	1
75	24	21	F	Filler	38	4	Despite	1	295.0	NA
75	24	21	F	Filler	38	4	the	2	49.0	NA
75	24	21	F	Filler	38	4	lack	3	83.0	NA
75	24	21	F	Filler	38	4	of	4	82.0	NA
75	24	21	F	Filler	38	4	publicity	5	35.0	NA
75	24	21	F	Filler	38	4	many	6	34.0	NA
75	24	21	F	Filler	38	4	people	7	99.0	NA
75	24	21	F	Filler	38	4	attended	8	201.0	NA
75	24	21	F	Filler	38	4	the	9	50.0	NA
75	24	21	F	Filler	38	4	lecture.	10	68.0	NA
75	24	21	F	Question	38	4	NA	NA	2032.0	1
76	24	21	F	swets	5	1	The	1	279.0	NA
76	24	21	F	swets	5	1	uncle	2	99.0	NA
76	24	21	F	swets	5	1	of	3	66.0	NA
76	24	21	F	swets	5	1	the	4	85.0	NA
76	24	21	F	swets	5	1	bishop	5	99.0	NA
76	24	21	F	swets	5	1	who	6	52.0	NA
76	24	21	F	swets	5	1	injured	7	66.0	NA
76	24	21	F	swets	5	1	himself	8	100.0	NA
76	24	21	F	swets	5	1	last	9	67.0	NA
76	24	21	F	swets	5	1	summer	10	99.0	NA
76	24	21	F	swets	5	1	was	11	50.0	NA
76	24	21	F	swets	5	1	concerned	12	217.0	NA
76	24	21	F	swets	5	1	about	13	100.0	NA
76	24	21	F	swets	5	1	the	14	50.0	NA
76	24	21	F	swets	5	1	infection.	15	84.0	NA
76	24	21	F	Question	5	1	NA	NA	3284.0	0
77	24	21	F	Filler	141	7	The	1	62.0	NA
77	24	21	F	Filler	141	7	nurse	2	66.0	NA
77	24	21	F	Filler	141	7	and	3	133.0	NA
77	24	21	F	Filler	141	7	custodian	4	100.0	NA
77	24	21	F	Filler	141	7	chatted	5	83.0	NA
77	24	21	F	Filler	141	7	during	6	68.0	NA
77	24	21	F	Filler	141	7	their	7	232.0	NA
77	24	21	F	Filler	141	7	break.	8	233.0	NA
77	24	21	F	Question	141	7	NA	NA	1736.0	1
78	24	21	F	Filler	55	4	The	1	262.0	NA
78	24	21	F	Filler	55	4	people	2	134.0	NA
78	24	21	F	Filler	55	4	certainly	3	115.0	NA
78	24	21	F	Filler	55	4	admired	4	100.0	NA
78	24	21	F	Filler	55	4	the	5	184.0	NA
78	24	21	F	Filler	55	4	wife	6	133.0	NA
78	24	21	F	Filler	55	4	of	7	83.0	NA
78	24	21	F	Filler	55	4	the	8	51.0	NA
78	24	21	F	Filler	55	4	janitor	9	100.0	NA
78	24	21	F	Filler	55	4	because	10	67.0	NA
78	24	21	F	Filler	55	4	she	11	66.0	NA
78	24	21	F	Filler	55	4	educated	12	67.0	NA
78	24	21	F	Filler	55	4	herself	13	116.0	NA
78	24	21	F	Filler	55	4	at	14	67.0	NA
78	24	21	F	Filler	55	4	night.	15	102.0	NA
78	24	21	F	Question	55	4	NA	NA	1866.0	1
79	24	21	F	Filler	42	4	After	1	411.0	NA
79	24	21	F	Filler	42	4	dinner	2	134.0	NA
79	24	21	F	Filler	42	4	the	3	82.0	NA
79	24	21	F	Filler	42	4	children	4	117.0	NA
79	24	21	F	Filler	42	4	gathered	5	67.0	NA
79	24	21	F	Filler	42	4	in	6	51.0	NA
79	24	21	F	Filler	42	4	a	7	66.0	NA
79	24	21	F	Filler	42	4	circle	8	69.0	NA
79	24	21	F	Filler	42	4	to	9	82.0	NA
79	24	21	F	Filler	42	4	listen	10	51.0	NA
79	24	21	F	Filler	42	4	to	11	199.0	NA
79	24	21	F	Filler	42	4	their	12	250.0	NA
79	24	21	F	Filler	42	4	grandmother's	13	68.0	NA
79	24	21	F	Filler	42	4	stories	14	99.0	NA
79	24	21	F	Filler	42	4	about	15	32.0	NA
79	24	21	F	Filler	42	4	the	16	167.0	NA
79	24	21	F	Filler	42	4	good	17	299.0	NA
79	24	21	F	Filler	42	4	old	18	119.0	NA
79	24	21	F	Filler	42	4	days.	19	98.0	NA
79	24	21	F	Question	42	4	NA	NA	2034.0	1
80	24	21	F	Filler	51	4	The	1	346.0	NA
80	24	21	F	Filler	51	4	students	2	100.0	NA
80	24	21	F	Filler	51	4	were	3	83.0	NA
80	24	21	F	Filler	51	4	in	4	67.0	NA
80	24	21	F	Filler	51	4	a	5	66.0	NA
80	24	21	F	Filler	51	4	frenzy	6	99.0	NA
80	24	21	F	Filler	51	4	because	7	67.0	NA
80	24	21	F	Filler	51	4	they	8	83.0	NA
80	24	21	F	Filler	51	4	wanted	9	34.0	NA
80	24	21	F	Filler	51	4	tickets	10	116.0	NA
80	24	21	F	Filler	51	4	for	11	34.0	NA
80	24	21	F	Filler	51	4	the	12	100.0	NA
80	24	21	F	Filler	51	4	game	13	83.0	NA
80	24	21	F	Filler	51	4	tonight.	14	51.0	NA
80	24	21	F	Question	51	4	NA	NA	1299.0	1
81	24	21	F	Filler	58	4	The	1	446.0	NA
81	24	21	F	Filler	58	4	white	2	116.0	NA
81	24	21	F	Filler	58	4	dog	3	99.0	NA
81	24	21	F	Filler	58	4	bit	4	100.0	NA
81	24	21	F	Filler	58	4	the	5	83.0	NA
81	24	21	F	Filler	58	4	ankle	6	85.0	NA
81	24	21	F	Filler	58	4	of	7	98.0	NA
81	24	21	F	Filler	58	4	the	8	84.0	NA
81	24	21	F	Filler	58	4	child.	9	84.0	NA
81	24	21	F	Question	58	4	NA	NA	1067.0	1
82	24	21	F	Filler	70	4	The	1	294.0	NA
82	24	21	F	Filler	70	4	warden	2	232.0	NA
82	24	21	F	Filler	70	4	was	3	118.0	NA
82	24	21	F	Filler	70	4	dissatisfied	4	67.0	NA
82	24	21	F	Filler	70	4	with	5	84.0	NA
82	24	21	F	Filler	70	4	the	6	233.0	NA
82	24	21	F	Filler	70	4	decision	7	100.0	NA
82	24	21	F	Filler	70	4	of	8	49.0	NA
82	24	21	F	Filler	70	4	the	9	134.0	NA
82	24	21	F	Filler	70	4	parole	10	100.0	NA
82	24	21	F	Filler	70	4	committee	11	83.0	NA
82	24	21	F	Filler	70	4	to	12	185.0	NA
82	24	21	F	Filler	70	4	pardon	13	283.0	NA
82	24	21	F	Filler	70	4	the	14	116.0	NA
82	24	21	F	Filler	70	4	prisoner.	15	67.0	NA
82	24	21	F	Question	70	4	NA	NA	1366.0	1
83	24	21	F	Filler	68	4	The	1	329.0	NA
83	24	21	F	Filler	68	4	scientist	2	116.0	NA
83	24	21	F	Filler	68	4	published	3	100.0	NA
83	24	21	F	Filler	68	4	a	4	218.0	NA
83	24	21	F	Filler	68	4	paper	5	67.0	NA
83	24	21	F	Filler	68	4	in	6	82.0	NA
83	24	21	F	Filler	68	4	the	7	84.0	NA
83	24	21	F	Filler	68	4	journal	8	66.0	NA
83	24	21	F	Filler	68	4	of	9	51.0	NA
83	24	21	F	Filler	68	4	the	10	83.0	NA
83	24	21	F	Filler	68	4	foreign	11	67.0	NA
83	24	21	F	Filler	68	4	organization.	12	99.0	NA
83	24	21	F	Question	68	4	NA	NA	1266.0	1
84	24	21	F	swets	3	2	The	1	261.0	NA
84	24	21	F	swets	3	2	secretary	2	118.0	NA
84	24	21	F	swets	3	2	of	3	67.0	NA
84	24	21	F	swets	3	2	the	4	67.0	NA
84	24	21	F	swets	3	2	salesman	5	132.0	NA
84	24	21	F	swets	3	2	who	6	33.0	NA
84	24	21	F	swets	3	2	amused	7	67.0	NA
84	24	21	F	swets	3	2	himself	8	100.0	NA
84	24	21	F	swets	3	2	quite	9	34.0	NA
84	24	21	F	swets	3	2	a	10	100.0	NA
84	24	21	F	swets	3	2	bit	11	133.0	NA
84	24	21	F	swets	3	2	was	12	100.0	NA
84	24	21	F	swets	3	2	writing	13	100.0	NA
84	24	21	F	swets	3	2	a	14	51.0	NA
84	24	21	F	swets	3	2	letter	15	83.0	NA
84	24	21	F	swets	3	2	to	16	83.0	NA
84	24	21	F	swets	3	2	the	17	99.0	NA
84	24	21	F	swets	3	2	editor.	18	100.0	NA
84	24	21	F	Question	3	2	NA	NA	1819.0	1
85	24	21	F	Filler	57	4	The	1	329.0	NA
85	24	21	F	Filler	57	4	architect	2	116.0	NA
85	24	21	F	Filler	57	4	was	3	83.0	NA
85	24	21	F	Filler	57	4	embarrassed	4	68.0	NA
85	24	21	F	Filler	57	4	by	5	116.0	NA
85	24	21	F	Filler	57	4	the	6	101.0	NA
85	24	21	F	Filler	57	4	memo	7	84.0	NA
85	24	21	F	Filler	57	4	of	8	215.0	NA
85	24	21	F	Filler	57	4	the	9	134.0	NA
85	24	21	F	Filler	57	4	engineer	10	82.0	NA
85	24	21	F	Filler	57	4	because	11	68.0	NA
85	24	21	F	Filler	57	4	it	12	66.0	NA
85	24	21	F	Filler	57	4	said	13	100.0	NA
85	24	21	F	Filler	57	4	that	14	100.0	NA
85	24	21	F	Filler	57	4	his	15	100.0	NA
85	24	21	F	Filler	57	4	building	16	100.0	NA
85	24	21	F	Filler	57	4	would	17	102.0	NA
85	24	21	F	Filler	57	4	collapse.	18	66.0	NA
85	24	21	F	Question	57	4	NA	NA	1067.0	1
86	24	21	F	Filler	111	6	While	1	295.0	NA
86	24	21	F	Filler	111	6	the	2	117.0	NA
86	24	21	F	Filler	111	6	clown	3	100.0	NA
86	24	21	F	Filler	111	6	juggled	4	100.0	NA
86	24	21	F	Filler	111	6	the	5	100.0	NA
86	24	21	F	Filler	111	6	balls	6	100.0	NA
86	24	21	F	Filler	111	6	fell	7	101.0	NA
86	24	21	F	Filler	111	6	to	8	116.0	NA
86	24	21	F	Filler	111	6	the	9	83.0	NA
86	24	21	F	Filler	111	6	ground.	10	100.0	NA
86	24	21	F	Question	111	6	NA	NA	900.0	1
87	24	21	F	Filler	113	6	While	1	295.0	NA
87	24	21	F	Filler	113	6	Noah	2	133.0	NA
87	24	21	F	Filler	113	6	was	3	116.0	NA
87	24	21	F	Filler	113	6	waking	4	100.0	NA
87	24	21	F	Filler	113	6	up	5	67.0	NA
87	24	21	F	Filler	113	6	the	6	84.0	NA
87	24	21	F	Filler	113	6	man	7	133.0	NA
87	24	21	F	Filler	113	6	the	8	84.0	NA
87	24	21	F	Filler	113	6	neighbor	9	98.0	NA
87	24	21	F	Filler	113	6	coughed	10	134.0	NA
87	24	21	F	Filler	113	6	loudly.	11	134.0	NA
87	24	21	F	Question	113	6	NA	NA	1202.0	1
88	24	21	F	Filler	83	5	The	1	378.0	NA
88	24	21	F	Filler	83	5	passengers	2	183.0	NA
88	24	21	F	Filler	83	5	screamed	3	135.0	NA
88	24	21	F	Filler	83	5	as	4	115.0	NA
88	24	21	F	Filler	83	5	the	5	150.0	NA
88	24	21	F	Filler	83	5	plane	6	117.0	NA
88	24	21	F	Filler	83	5	dipped	7	134.0	NA
88	24	21	F	Filler	83	5	and	8	132.0	NA
88	24	21	F	Filler	83	5	the	9	219.0	NA
88	24	21	F	Filler	83	5	pilots	10	217.0	NA
88	24	21	F	Filler	83	5	said	11	166.0	NA
88	24	21	F	Filler	83	5	their	12	166.0	NA
88	24	21	F	Filler	83	5	prayers	13	150.0	NA
88	24	21	F	Filler	83	5	quietly.	14	167.0	NA
88	24	21	F	Question	83	5	NA	NA	1367.0	1
89	24	21	F	Filler	114	6	While	1	396.0	NA
89	24	21	F	Filler	114	6	the	2	134.0	NA
89	24	21	F	Filler	114	6	winners	3	416.0	NA
89	24	21	F	Filler	114	6	were	4	134.0	NA
89	24	21	F	Filler	114	6	kissing	5	133.0	NA
89	24	21	F	Filler	114	6	the	6	100.0	NA
89	24	21	F	Filler	114	6	crowd	7	150.0	NA
89	24	21	F	Filler	114	6	cheered	8	332.0	NA
89	24	21	F	Filler	114	6	wildly.	9	135.0	NA
89	24	21	F	Question	114	6	NA	NA	1167.0	1
90	24	21	F	swets	27	2	The	1	278.0	NA
90	24	21	F	swets	27	2	sister	2	134.0	NA
90	24	21	F	swets	27	2	of	3	167.0	NA
90	24	21	F	swets	27	2	the	4	117.0	NA
90	24	21	F	swets	27	2	butcher	5	100.0	NA
90	24	21	F	swets	27	2	who	6	233.0	NA
90	24	21	F	swets	27	2	invited	7	233.0	NA
90	24	21	F	swets	27	2	himself	8	251.0	NA
90	24	21	F	swets	27	2	to	9	165.0	NA
90	24	21	F	swets	27	2	the	10	100.0	NA
90	24	21	F	swets	27	2	party	11	67.0	NA
90	24	21	F	swets	27	2	enjoyed	12	166.0	NA
90	24	21	F	swets	27	2	it	13	167.0	NA
90	24	21	F	swets	27	2	quite	14	334.0	NA
90	24	21	F	swets	27	2	a	15	134.0	NA
90	24	21	F	swets	27	2	bit.	16	167.0	NA
90	24	21	F	Question	27	2	NA	NA	2001.0	1
91	24	21	F	Filler	54	4	The	1	278.0	NA
91	24	21	F	Filler	54	4	video	2	200.0	NA
91	24	21	F	Filler	54	4	screen	3	133.0	NA
91	24	21	F	Filler	54	4	of	4	68.0	NA
91	24	21	F	Filler	54	4	the	5	149.0	NA
91	24	21	F	Filler	54	4	monitor	6	69.0	NA
91	24	21	F	Filler	54	4	made	7	264.0	NA
91	24	21	F	Filler	54	4	strange	8	234.0	NA
91	24	21	F	Filler	54	4	noises	9	135.0	NA
91	24	21	F	Filler	54	4	and	10	83.0	NA
91	24	21	F	Filler	54	4	started	11	117.0	NA
91	24	21	F	Filler	54	4	emitting	12	67.0	NA
91	24	21	F	Filler	54	4	strange	13	149.0	NA
91	24	21	F	Filler	54	4	flashes.	14	233.0	NA
91	24	21	F	Question	54	4	NA	NA	2485.0	1
92	24	21	F	Filler	102	5	The	1	344.0	NA
92	24	21	F	Filler	102	5	old	2	133.0	NA
92	24	21	F	Filler	102	5	man	3	69.0	NA
92	24	21	F	Filler	102	5	appeared	4	132.0	NA
92	24	21	F	Filler	102	5	to	5	34.0	NA
92	24	21	F	Filler	102	5	be	6	67.0	NA
92	24	21	F	Filler	102	5	upset	7	66.0	NA
92	24	21	F	Filler	102	5	by	8	83.0	NA
92	24	21	F	Filler	102	5	the	9	34.0	NA
92	24	21	F	Filler	102	5	teenager's	10	34.0	NA
92	24	21	F	Filler	102	5	ignorant	11	132.0	NA
92	24	21	F	Filler	102	5	remark.	12	84.0	NA
92	24	21	F	Question	102	5	NA	NA	933.0	1
93	24	21	F	swets	19	3	The	1	245.0	NA
93	24	21	F	swets	19	3	mistress	2	117.0	NA
93	24	21	F	swets	19	3	of	3	100.0	NA
93	24	21	F	swets	19	3	the	4	83.0	NA
93	24	21	F	swets	19	3	actor	5	84.0	NA
93	24	21	F	swets	19	3	who	6	84.0	NA
93	24	21	F	swets	19	3	hated	7	99.0	NA
93	24	21	F	swets	19	3	herself	8	182.0	NA
93	24	21	F	swets	19	3	for	9	68.0	NA
93	24	21	F	swets	19	3	lying	10	99.0	NA
93	24	21	F	swets	19	3	left	11	101.0	NA
93	24	21	F	swets	19	3	town	12	82.0	NA
93	24	21	F	swets	19	3	in	13	118.0	NA
93	24	21	F	swets	19	3	a	14	333.0	NA
93	24	21	F	swets	19	3	hurry.	15	101.0	NA
93	24	21	F	Question	19	3	NA	NA	1466.0	1
94	24	21	F	Filler	80	5	The	1	261.0	NA
94	24	21	F	Filler	80	5	stepfather	2	269.0	NA
94	24	21	F	Filler	80	5	of	3	131.0	NA
94	24	21	F	Filler	80	5	the	4	68.0	NA
94	24	21	F	Filler	80	5	nun	5	100.0	NA
94	24	21	F	Filler	80	5	with	6	83.0	NA
94	24	21	F	Filler	80	5	a	7	67.0	NA
94	24	21	F	Filler	80	5	long	8	67.0	NA
94	24	21	F	Filler	80	5	white	9	116.0	NA
94	24	21	F	Filler	80	5	beard	10	67.0	NA
94	24	21	F	Filler	80	5	became	11	100.0	NA
94	24	21	F	Filler	80	5	very	12	83.0	NA
94	24	21	F	Filler	80	5	ill.	13	83.0	NA
94	24	21	F	Question	80	5	NA	NA	1201.0	1
95	24	21	F	swets	6	2	The	1	394.0	NA
95	24	21	F	swets	6	2	hostess	2	117.0	NA
95	24	21	F	swets	6	2	of	3	99.0	NA
95	24	21	F	swets	6	2	the	4	84.0	NA
95	24	21	F	swets	6	2	mayor	5	100.0	NA
95	24	21	F	swets	6	2	who	6	217.0	NA
95	24	21	F	swets	6	2	complimented	7	133.0	NA
95	24	21	F	swets	6	2	himself	8	82.0	NA
95	24	21	F	swets	6	2	constantly	9	68.0	NA
95	24	21	F	swets	6	2	was	10	117.0	NA
95	24	21	F	swets	6	2	bothered	11	84.0	NA
95	24	21	F	swets	6	2	by	12	116.0	NA
95	24	21	F	swets	6	2	the	13	101.0	NA
95	24	21	F	swets	6	2	reporter.	14	351.0	NA
95	24	21	F	Question	6	2	NA	NA	3165.0	1
96	24	21	F	Filler	134	7	As	1	462.0	NA
96	24	21	F	Filler	134	7	Shawnie	2	134.0	NA
96	24	21	F	Filler	134	7	and	3	82.0	NA
96	24	21	F	Filler	134	7	Nick	4	100.0	NA
96	24	21	F	Filler	134	7	were	5	85.0	NA
96	24	21	F	Filler	134	7	embracing	6	65.0	NA
96	24	21	F	Filler	134	7	the	7	68.0	NA
96	24	21	F	Filler	134	7	doctor	8	99.0	NA
96	24	21	F	Filler	134	7	the	9	101.0	NA
96	24	21	F	Filler	134	7	visitor	10	50.0	NA
96	24	21	F	Filler	134	7	entered	11	165.0	NA
96	24	21	F	Filler	134	7	the	12	101.0	NA
96	24	21	F	Filler	134	7	room.	13	100.0	NA
96	24	21	F	Question	134	7	NA	NA	1734.0	1
97	24	21	F	swets	17	1	The	1	411.0	NA
97	24	21	F	swets	17	1	grandmother	2	334.0	NA
97	24	21	F	swets	17	1	of	3	84.0	NA
97	24	21	F	swets	17	1	the	4	100.0	NA
97	24	21	F	swets	17	1	heiress	5	82.0	NA
97	24	21	F	swets	17	1	who	6	67.0	NA
97	24	21	F	swets	17	1	bankrupted	7	102.0	NA
97	24	21	F	swets	17	1	herself	8	115.0	NA
97	24	21	F	swets	17	1	last	9	300.0	NA
97	24	21	F	swets	17	1	year	10	168.0	NA
97	24	21	F	swets	17	1	still	11	465.0	NA
97	24	21	F	swets	17	1	made	12	152.0	NA
97	24	21	F	swets	17	1	risky	13	167.0	NA
97	24	21	F	swets	17	1	investments.	14	100.0	NA
97	24	21	F	Question	17	1	NA	NA	1699.0	1
98	24	21	F	Filler	72	4	The	1	162.0	NA
98	24	21	F	Filler	72	4	secretaries	2	99.0	NA
98	24	21	F	Filler	72	4	couldn't	3	132.0	NA
98	24	21	F	Filler	72	4	break	4	100.0	NA
98	24	21	F	Filler	72	4	away	5	185.0	NA
98	24	21	F	Filler	72	4	from	6	101.0	NA
98	24	21	F	Filler	72	4	their	7	116.0	NA
98	24	21	F	Filler	72	4	habit	8	66.0	NA
98	24	21	F	Filler	72	4	of	9	34.0	NA
98	24	21	F	Filler	72	4	coffee	10	367.0	NA
98	24	21	F	Filler	72	4	and	11	133.0	NA
98	24	21	F	Filler	72	4	cigarettes	12	217.0	NA
98	24	21	F	Filler	72	4	during	13	99.0	NA
98	24	21	F	Filler	72	4	their	14	117.0	NA
98	24	21	F	Filler	72	4	breaks.	15	68.0	NA
98	24	21	F	Question	72	4	NA	NA	1166.0	1
99	24	21	F	Filler	100	5	There	1	928.0	NA
99	24	21	F	Filler	100	5	was	2	200.0	NA
99	24	21	F	Filler	100	5	a	3	35.0	NA
99	24	21	F	Filler	100	5	large	4	83.0	NA
99	24	21	F	Filler	100	5	sale	5	66.0	NA
99	24	21	F	Filler	100	5	on	6	34.0	NA
99	24	21	F	Filler	100	5	stationary	7	34.0	NA
99	24	21	F	Filler	100	5	and	8	66.0	NA
99	24	21	F	Filler	100	5	office	9	33.0	NA
99	24	21	F	Filler	100	5	supplies	10	82.0	NA
99	24	21	F	Filler	100	5	at	11	118.0	NA
99	24	21	F	Filler	100	5	the	12	34.0	NA
99	24	21	F	Filler	100	5	student	13	32.0	NA
99	24	21	F	Filler	100	5	bookstore.	14	34.0	NA
99	24	21	F	Question	100	5	NA	NA	1399.0	1
100	24	21	F	swets	30	2	The	1	445.0	NA
100	24	21	F	swets	30	2	bodyguard	2	99.0	NA
100	24	21	F	swets	30	2	of	3	18.0	NA
100	24	21	F	swets	30	2	the	4	32.0	NA
100	24	21	F	swets	30	2	baroness	5	67.0	NA
100	24	21	F	swets	30	2	who	6	49.0	NA
100	24	21	F	swets	30	2	prepared	7	34.0	NA
100	24	21	F	swets	30	2	herself	8	50.0	NA
100	24	21	F	swets	30	2	very	9	82.0	NA
100	24	21	F	swets	30	2	thoroughly	10	33.0	NA
100	24	21	F	swets	30	2	came	11	169.0	NA
100	24	21	F	swets	30	2	from	12	215.0	NA
100	24	21	F	swets	30	2	the	13	18.0	NA
100	24	21	F	swets	30	2	south.	14	67.0	NA
100	24	21	F	Question	30	2	NA	NA	2700.0	0
101	24	21	F	Filler	144	7	The	1	462.0	NA
101	24	21	F	Filler	144	7	apple	2	200.0	NA
101	24	21	F	Filler	144	7	and	3	101.0	NA
101	24	21	F	Filler	144	7	potato	4	115.0	NA
101	24	21	F	Filler	144	7	went	5	100.0	NA
101	24	21	F	Filler	144	7	rotten	6	100.0	NA
101	24	21	F	Filler	144	7	after	7	34.0	NA
101	24	21	F	Filler	144	7	a	8	117.0	NA
101	24	21	F	Filler	144	7	week.	9	100.0	NA
101	24	21	F	Question	144	7	NA	NA	1200.0	1
102	24	21	F	swets	4	3	The	1	380.0	NA
102	24	21	F	swets	4	3	father	2	216.0	NA
102	24	21	F	swets	4	3	of	3	85.0	NA
102	24	21	F	swets	4	3	the	4	166.0	NA
102	24	21	F	swets	4	3	bride	5	66.0	NA
102	24	21	F	swets	4	3	who	6	134.0	NA
102	24	21	F	swets	4	3	embarrassed	7	99.0	NA
102	24	21	F	swets	4	3	himself	8	133.0	NA
102	24	21	F	swets	4	3	at	9	133.0	NA
102	24	21	F	swets	4	3	the	10	268.0	NA
102	24	21	F	swets	4	3	reception	11	134.0	NA
102	24	21	F	swets	4	3	was	12	233.0	NA
102	24	21	F	swets	4	3	complaining	13	134.0	NA
102	24	21	F	swets	4	3	to	14	150.0	NA
102	24	21	F	swets	4	3	the	15	133.0	NA
102	24	21	F	swets	4	3	priest.	16	199.0	NA
102	24	21	F	Question	4	3	NA	NA	967.0	1
103	24	21	F	Filler	50	4	The	1	495.0	NA
103	24	21	F	Filler	50	4	new	2	150.0	NA
103	24	21	F	Filler	50	4	language	3	99.0	NA
103	24	21	F	Filler	50	4	requirement	4	35.0	NA
103	24	21	F	Filler	50	4	made	5	50.0	NA
103	24	21	F	Filler	50	4	all	6	116.0	NA
103	24	21	F	Filler	50	4	the	7	83.0	NA
103	24	21	F	Filler	50	4	students	8	101.0	NA
103	24	21	F	Filler	50	4	say	9	67.0	NA
103	24	21	F	Filler	50	4	bad	10	65.0	NA
103	24	21	F	Filler	50	4	things	11	83.0	NA
103	24	21	F	Filler	50	4	about	12	401.0	NA
103	24	21	F	Filler	50	4	the	13	67.0	NA
103	24	21	F	Filler	50	4	dean	14	183.0	NA
103	24	21	F	Filler	50	4	of	15	101.0	NA
103	24	21	F	Filler	50	4	the	16	268.0	NA
103	24	21	F	Filler	50	4	college.	17	148.0	NA
103	24	21	F	Question	50	4	NA	NA	1134.0	1
104	24	21	F	Filler	95	5	The	1	395.0	NA
104	24	21	F	Filler	95	5	receptionist	2	233.0	NA
104	24	21	F	Filler	95	5	of	3	99.0	NA
104	24	21	F	Filler	95	5	the	4	333.0	NA
104	24	21	F	Filler	95	5	company	5	167.0	NA
104	24	21	F	Filler	95	5	went	6	68.0	NA
104	24	21	F	Filler	95	5	home	7	283.0	NA
104	24	21	F	Filler	95	5	sick	8	100.0	NA
104	24	21	F	Filler	95	5	before	9	367.0	NA
104	24	21	F	Filler	95	5	moving	10	167.0	NA
104	24	21	F	Filler	95	5	across	11	133.0	NA
104	24	21	F	Filler	95	5	town.	12	67.0	NA
104	24	21	F	Question	95	5	NA	NA	1466.0	1
105	24	21	F	Filler	61	4	The	1	311.0	NA
105	24	21	F	Filler	61	4	lemon	2	102.0	NA
105	24	21	F	Filler	61	4	squirted	3	99.0	NA
105	24	21	F	Filler	61	4	into	4	116.0	NA
105	24	21	F	Filler	61	4	the	5	52.0	NA
105	24	21	F	Filler	61	4	debutante's	6	132.0	NA
105	24	21	F	Filler	61	4	eye	7	17.0	NA
105	24	21	F	Filler	61	4	as	8	117.0	NA
105	24	21	F	Filler	61	4	she	9	67.0	NA
105	24	21	F	Filler	61	4	tried	10	117.0	NA
105	24	21	F	Filler	61	4	to	11	100.0	NA
105	24	21	F	Filler	61	4	impress	12	132.0	NA
105	24	21	F	Filler	61	4	her	13	34.0	NA
105	24	21	F	Filler	61	4	mother's	14	133.0	NA
105	24	21	F	Filler	61	4	society	15	84.0	NA
105	24	21	F	Filler	61	4	friends.	16	99.0	NA
105	24	21	F	Question	61	4	NA	NA	1100.0	1
106	24	21	F	Filler	69	4	The	1	328.0	NA
106	24	21	F	Filler	69	4	tiny	2	85.0	NA
106	24	21	F	Filler	69	4	child	3	99.0	NA
106	24	21	F	Filler	69	4	rolled	4	51.0	NA
106	24	21	F	Filler	69	4	the	5	50.0	NA
106	24	21	F	Filler	69	4	piece	6	100.0	NA
106	24	21	F	Filler	69	4	of	7	81.0	NA
106	24	21	F	Filler	69	4	the	8	68.0	NA
106	24	21	F	Filler	69	4	toy	9	66.0	NA
106	24	21	F	Filler	69	4	into	10	84.0	NA
106	24	21	F	Filler	69	4	the	11	99.0	NA
106	24	21	F	Filler	69	4	next	12	67.0	NA
106	24	21	F	Filler	69	4	room	13	35.0	NA
106	24	21	F	Filler	69	4	after	14	82.0	NA
106	24	21	F	Filler	69	4	it	15	350.0	NA
106	24	21	F	Filler	69	4	broke	16	133.0	NA
106	24	21	F	Filler	69	4	off.	17	117.0	NA
106	24	21	F	Question	69	4	NA	NA	900.0	1
107	24	21	F	swets	10	3	The	1	479.0	NA
107	24	21	F	swets	10	3	uncle	2	267.0	NA
107	24	21	F	swets	10	3	of	3	115.0	NA
107	24	21	F	swets	10	3	the	4	267.0	NA
107	24	21	F	swets	10	3	nun	5	201.0	NA
107	24	21	F	swets	10	3	who	6	83.0	NA
107	24	21	F	swets	10	3	lost	7	67.0	NA
107	24	21	F	swets	10	3	himself	8	66.0	NA
107	24	21	F	swets	10	3	in	9	50.0	NA
107	24	21	F	swets	10	3	thought	10	234.0	NA
107	24	21	F	swets	10	3	was	11	33.0	NA
107	24	21	F	swets	10	3	disturbed	12	233.0	NA
107	24	21	F	swets	10	3	by	13	67.0	NA
107	24	21	F	swets	10	3	the	14	52.0	NA
107	24	21	F	swets	10	3	noise.	15	98.0	NA
107	24	21	F	Question	10	3	NA	NA	1233.0	1
108	24	21	F	Filler	52	4	The	1	345.0	NA
108	24	21	F	Filler	52	4	students	2	199.0	NA
108	24	21	F	Filler	52	4	were	3	49.0	NA
108	24	21	F	Filler	52	4	bored	4	367.0	NA
108	24	21	F	Filler	52	4	by	5	217.0	NA
108	24	21	F	Filler	52	4	the	6	150.0	NA
108	24	21	F	Filler	52	4	teacher.	7	134.0	NA
108	24	21	F	Question	52	4	NA	NA	900.0	1
109	24	21	F	Filler	132	7	While	1	261.0	NA
109	24	21	F	Filler	132	7	John	2	167.0	NA
109	24	21	F	Filler	132	7	and	3	82.0	NA
109	24	21	F	Filler	132	7	Mary	4	100.0	NA
109	24	21	F	Filler	132	7	kissed	5	33.0	NA
109	24	21	F	Filler	132	7	their	6	168.0	NA
109	24	21	F	Filler	132	7	daughter	7	99.0	NA
109	24	21	F	Filler	132	7	fell	8	84.0	NA
109	24	21	F	Filler	132	7	asleep.	9	66.0	NA
109	24	21	F	Question	132	7	NA	NA	1670.0	0
110	24	21	F	swets	22	3	The	1	462.0	NA
110	24	21	F	swets	22	3	niece	2	184.0	NA
110	24	21	F	swets	22	3	of	3	333.0	NA
110	24	21	F	swets	22	3	the	4	166.0	NA
110	24	21	F	swets	22	3	commander	5	100.0	NA
110	24	21	F	swets	22	3	who	6	100.0	NA
110	24	21	F	swets	22	3	calmed	7	251.0	NA
110	24	21	F	swets	22	3	herself	8	66.0	NA
110	24	21	F	swets	22	3	after	9	201.0	NA
110	24	21	F	swets	22	3	the	10	50.0	NA
110	24	21	F	swets	22	3	tragedy	11	66.0	NA
110	24	21	F	swets	22	3	was	12	200.0	NA
110	24	21	F	swets	22	3	waiting	13	34.0	NA
110	24	21	F	swets	22	3	for	14	99.0	NA
110	24	21	F	swets	22	3	the	15	168.0	NA
110	24	21	F	swets	22	3	doctor.	16	66.0	NA
110	24	21	F	Question	22	3	NA	NA	1884.0	1
111	24	21	F	Filler	78	5	The	1	345.0	NA
111	24	21	F	Filler	78	5	customer	2	135.0	NA
111	24	21	F	Filler	78	5	complimented	3	100.0	NA
111	24	21	F	Filler	78	5	the	4	98.0	NA
111	24	21	F	Filler	78	5	store	5	67.0	NA
111	24	21	F	Filler	78	5	keeper	6	117.0	NA
111	24	21	F	Filler	78	5	with	7	84.0	NA
111	24	21	F	Filler	78	5	the	8	66.0	NA
111	24	21	F	Filler	78	5	new	9	101.0	NA
111	24	21	F	Filler	78	5	stock.	10	33.0	NA
111	24	21	F	Question	78	5	NA	NA	1566.0	1
112	24	21	F	Filler	41	4	While	1	362.0	NA
112	24	21	F	Filler	41	4	the	2	100.0	NA
112	24	21	F	Filler	41	4	babysitter	3	99.0	NA
112	24	21	F	Filler	41	4	watched	4	68.0	NA
112	24	21	F	Filler	41	4	soap	5	115.0	NA
112	24	21	F	Filler	41	4	operas	6	68.0	NA
112	24	21	F	Filler	41	4	the	7	83.0	NA
112	24	21	F	Filler	41	4	child	8	100.0	NA
112	24	21	F	Filler	41	4	poured	9	98.0	NA
112	24	21	F	Filler	41	4	honey	10	84.0	NA
112	24	21	F	Filler	41	4	all	11	99.0	NA
112	24	21	F	Filler	41	4	over	12	100.0	NA
112	24	21	F	Filler	41	4	the	13	51.0	NA
112	24	21	F	Filler	41	4	floor.	14	68.0	NA
112	24	21	F	Question	41	4	NA	NA	933.0	1
113	24	21	F	Filler	66	4	The	1	444.0	NA
113	24	21	F	Filler	66	4	rare	2	168.0	NA
113	24	21	F	Filler	66	4	and	3	115.0	NA
113	24	21	F	Filler	66	4	exotic	4	68.0	NA
113	24	21	F	Filler	66	4	monkey	5	67.0	NA
113	24	21	F	Filler	66	4	was	6	98.0	NA
113	24	21	F	Filler	66	4	the	7	168.0	NA
113	24	21	F	Filler	66	4	center	8	99.0	NA
113	24	21	F	Filler	66	4	of	9	50.0	NA
113	24	21	F	Filler	66	4	attention	10	34.0	NA
113	24	21	F	Filler	66	4	at	11	132.0	NA
113	24	21	F	Filler	66	4	the	12	151.0	NA
113	24	21	F	Filler	66	4	zoo.	13	66.0	NA
113	24	21	F	Question	66	4	NA	NA	701.0	1
114	24	21	F	Filler	109	6	While	1	328.0	NA
114	24	21	F	Filler	109	6	the	2	51.0	NA
114	24	21	F	Filler	109	6	farmer	3	100.0	NA
114	24	21	F	Filler	109	6	steered	4	48.0	NA
114	24	21	F	Filler	109	6	the	5	34.0	NA
114	24	21	F	Filler	109	6	truck	6	101.0	NA
114	24	21	F	Filler	109	6	the	7	184.0	NA
114	24	21	F	Filler	109	6	tractor	8	165.0	NA
114	24	21	F	Filler	109	6	pulled	9	33.0	NA
114	24	21	F	Filler	109	6	the	10	217.0	NA
114	24	21	F	Filler	109	6	plough.	11	67.0	NA
114	24	21	F	Question	109	6	NA	NA	933.0	1
115	24	21	F	swets	2	1	The	1	262.0	NA
115	24	21	F	swets	2	1	uncle	2	233.0	NA
115	24	21	F	swets	2	1	of	3	85.0	NA
115	24	21	F	swets	2	1	the	4	115.0	NA
115	24	21	F	swets	2	1	fireman	5	100.0	NA
115	24	21	F	swets	2	1	who	6	35.0	NA
115	24	21	F	swets	2	1	criticized	7	67.0	NA
115	24	21	F	swets	2	1	himself	8	99.0	NA
115	24	21	F	swets	2	1	far	9	65.0	NA
115	24	21	F	swets	2	1	too	10	52.0	NA
115	24	21	F	swets	2	1	often	11	67.0	NA
115	24	21	F	swets	2	1	was	12	265.0	NA
115	24	21	F	swets	2	1	painting	13	184.0	NA
115	24	21	F	swets	2	1	the	14	99.0	NA
115	24	21	F	swets	2	1	bedroom.	15	100.0	NA
115	24	21	F	Question	2	1	NA	NA	1502.0	0
116	24	21	F	Filler	74	5	My	1	344.0	NA
116	24	21	F	Filler	74	5	former	2	134.0	NA
116	24	21	F	Filler	74	5	girlfriend	3	99.0	NA
116	24	21	F	Filler	74	5	criticized	4	34.0	NA
116	24	21	F	Filler	74	5	the	5	150.0	NA
116	24	21	F	Filler	74	5	author's	6	133.0	NA
116	24	21	F	Filler	74	5	agent	7	300.0	NA
116	24	21	F	Filler	74	5	because	8	34.0	NA
116	24	21	F	Filler	74	5	he	9	17.0	NA
116	24	21	F	Filler	74	5	had	10	200.0	NA
116	24	21	F	Filler	74	5	failed	11	51.0	NA
116	24	21	F	Filler	74	5	to	12	317.0	NA
116	24	21	F	Filler	74	5	meet	13	265.0	NA
116	24	21	F	Filler	74	5	a	14	135.0	NA
116	24	21	F	Filler	74	5	deadline.	15	100.0	NA
116	24	21	F	Question	74	5	NA	NA	1983.0	1
117	24	21	F	Filler	59	4	The	1	330.0	NA
117	24	21	F	Filler	59	4	conductor	2	67.0	NA
117	24	21	F	Filler	59	4	of	3	83.0	NA
117	24	21	F	Filler	59	4	the	4	17.0	NA
117	24	21	F	Filler	59	4	orchestra	5	33.0	NA
117	24	21	F	Filler	59	4	with	6	150.0	NA
117	24	21	F	Filler	59	4	the	7	133.0	NA
117	24	21	F	Filler	59	4	bald	8	34.0	NA
117	24	21	F	Filler	59	4	head	9	32.0	NA
117	24	21	F	Filler	59	4	plays	10	134.0	NA
117	24	21	F	Filler	59	4	excellently.	11	33.0	NA
117	24	21	F	Question	59	4	NA	NA	1067.0	1
118	24	21	F	swets	23	1	The	1	412.0	NA
118	24	21	F	swets	23	1	mother	2	249.0	NA
118	24	21	F	swets	23	1	of	3	84.0	NA
118	24	21	F	swets	23	1	the	4	84.0	NA
118	24	21	F	swets	23	1	ballerina	5	66.0	NA
118	24	21	F	swets	23	1	who	6	34.0	NA
118	24	21	F	swets	23	1	found	7	34.0	NA
118	24	21	F	swets	23	1	herself	8	100.0	NA
118	24	21	F	swets	23	1	in	9	166.0	NA
118	24	21	F	swets	23	1	a	10	234.0	NA
118	24	21	F	swets	23	1	lot	11	49.0	NA
118	24	21	F	swets	23	1	of	12	385.0	NA
118	24	21	F	swets	23	1	trouble	13	66.0	NA
118	24	21	F	swets	23	1	phoned	14	100.0	NA
118	24	21	F	swets	23	1	the	15	50.0	NA
118	24	21	F	swets	23	1	police.	16	100.0	NA
118	24	21	F	Question	23	1	NA	NA	3018.0	0
119	24	21	F	Filler	142	7	The	1	1078.0	NA
119	24	21	F	Filler	142	7	cats	2	134.0	NA
119	24	21	F	Filler	142	7	and	3	100.0	NA
119	24	21	F	Filler	142	7	dogs	4	99.0	NA
119	24	21	F	Filler	142	7	glared	5	67.0	NA
119	24	21	F	Filler	142	7	at	6	36.0	NA
119	24	21	F	Filler	142	7	each	7	250.0	NA
119	24	21	F	Filler	142	7	other	8	32.0	NA
119	24	21	F	Filler	142	7	warily.	9	67.0	NA
119	24	21	F	Question	142	7	NA	NA	1466.0	0
120	24	21	F	Filler	43	4	The	1	278.0	NA
120	24	21	F	Filler	43	4	movie	2	101.0	NA
120	24	21	F	Filler	43	4	director	3	100.0	NA
120	24	21	F	Filler	43	4	refused	4	100.0	NA
120	24	21	F	Filler	43	4	to	5	15.0	NA
120	24	21	F	Filler	43	4	work	6	468.0	NA
120	24	21	F	Filler	43	4	with	7	99.0	NA
120	24	21	F	Filler	43	4	the	8	68.0	NA
120	24	21	F	Filler	43	4	producer	9	65.0	NA
120	24	21	F	Filler	43	4	again	10	34.0	NA
120	24	21	F	Filler	43	4	after	11	83.0	NA
120	24	21	F	Filler	43	4	winning	12	34.0	NA
120	24	21	F	Filler	43	4	the	13	216.0	NA
120	24	21	F	Filler	43	4	grand	14	217.0	NA
120	24	21	F	Filler	43	4	prize.	15	99.0	NA
120	24	21	F	Question	43	4	NA	NA	2568.0	1
121	24	21	F	swets	8	1	The	1	378.0	NA
121	24	21	F	swets	8	1	sister	2	151.0	NA
121	24	21	F	swets	8	1	of	3	98.0	NA
121	24	21	F	swets	8	1	the	4	33.0	NA
121	24	21	F	swets	8	1	seamstress	5	35.0	NA
121	24	21	F	swets	8	1	who	6	166.0	NA
121	24	21	F	swets	8	1	entertained	7	34.0	NA
121	24	21	F	swets	8	1	herself	8	32.0	NA
121	24	21	F	swets	8	1	most	9	200.0	NA
121	24	21	F	swets	8	1	evenings	10	135.0	NA
121	24	21	F	swets	8	1	was	11	133.0	NA
121	24	21	F	swets	8	1	reading	12	33.0	NA
121	24	21	F	swets	8	1	a	13	50.0	NA
121	24	21	F	swets	8	1	book.	14	467.0	NA
121	24	21	F	Question	8	1	NA	NA	1482.0	1
122	24	21	F	Filler	49	4	The	1	62.0	NA
122	24	21	F	Filler	49	4	construction	2	300.0	NA
122	24	21	F	Filler	49	4	worker	3	199.0	NA
122	24	21	F	Filler	49	4	sued	4	100.0	NA
122	24	21	F	Filler	49	4	the	5	34.0	NA
122	24	21	F	Filler	49	4	son	6	167.0	NA
122	24	21	F	Filler	49	4	of	7	151.0	NA
122	24	21	F	Filler	49	4	that	8	200.0	NA
122	24	21	F	Filler	49	4	greedy	9	33.0	NA
122	24	21	F	Filler	49	4	banker.	10	67.0	NA
122	24	21	F	Question	49	4	NA	NA	1999.0	1
123	24	21	F	Filler	81	5	The	1	780.0	NA
123	24	21	F	Filler	81	5	stubborn	2	65.0	NA
123	24	21	F	Filler	81	5	old	3	68.0	NA
123	24	21	F	Filler	81	5	man	4	32.0	NA
123	24	21	F	Filler	81	5	criticized	5	35.0	NA
123	24	21	F	Filler	81	5	everything	6	33.0	NA
123	24	21	F	Filler	81	5	that	7	167.0	NA
123	24	21	F	Filler	81	5	the	8	50.0	NA
123	24	21	F	Filler	81	5	young	9	33.0	NA
123	24	21	F	Filler	81	5	student	10	66.0	NA
123	24	21	F	Filler	81	5	did.	11	35.0	NA
123	24	21	F	Question	81	5	NA	NA	999.0	1
124	24	21	F	Filler	123	6	The	1	646.0	NA
124	24	21	F	Filler	123	6	student	2	166.0	NA
124	24	21	F	Filler	123	6	and	3	118.0	NA
124	24	21	F	Filler	123	6	professor	4	101.0	NA
124	24	21	F	Filler	123	6	went	5	82.0	NA
124	24	21	F	Filler	123	6	for	6	84.0	NA
124	24	21	F	Filler	123	6	a	7	50.0	NA
124	24	21	F	Filler	123	6	walk	8	132.0	NA
124	24	21	F	Filler	123	6	last	9	51.0	NA
124	24	21	F	Filler	123	6	Tuesday.	10	67.0	NA
124	24	21	F	Question	123	6	NA	NA	1466.0	1
125	24	21	F	swets	25	3	The	1	580.0	NA
125	24	21	F	swets	25	3	grandfather	2	165.0	NA
125	24	21	F	swets	25	3	of	3	50.0	NA
125	24	21	F	swets	25	3	the	4	68.0	NA
125	24	21	F	swets	25	3	stewardess	5	65.0	NA
125	24	21	F	swets	25	3	who	6	18.0	NA
125	24	21	F	swets	25	3	treated	7	33.0	NA
125	24	21	F	swets	25	3	himself	8	66.0	NA
125	24	21	F	swets	25	3	to	9	33.0	NA
125	24	21	F	swets	25	3	an	10	116.0	NA
125	24	21	F	swets	25	3	ice-cream	11	301.0	NA
125	24	21	F	swets	25	3	cone	12	367.0	NA
125	24	21	F	swets	25	3	was	13	166.0	NA
125	24	21	F	swets	25	3	waiting	14	67.0	NA
125	24	21	F	swets	25	3	at	15	117.0	NA
125	24	21	F	swets	25	3	home.	16	300.0	NA
125	24	21	F	Question	25	3	NA	NA	1967.0	1
126	24	21	F	Filler	48	4	The	1	428.0	NA
126	24	21	F	Filler	48	4	police	2	234.0	NA
126	24	21	F	Filler	48	4	arrested	3	199.0	NA
126	24	21	F	Filler	48	4	the	4	267.0	NA
126	24	21	F	Filler	48	4	sister	5	218.0	NA
126	24	21	F	Filler	48	4	of	6	199.0	NA
126	24	21	F	Filler	48	4	the	7	216.0	NA
126	24	21	F	Filler	48	4	handyman	8	202.0	NA
126	24	21	F	Filler	48	4	after	9	282.0	NA
126	24	21	F	Filler	48	4	she	10	200.0	NA
126	24	21	F	Filler	48	4	recently	11	102.0	NA
126	24	21	F	Filler	48	4	gave	12	133.0	NA
126	24	21	F	Filler	48	4	birth	13	100.0	NA
126	24	21	F	Filler	48	4	to	14	99.0	NA
126	24	21	F	Filler	48	4	twins.	15	101.0	NA
126	24	21	F	Question	48	4	NA	NA	1600.0	1
127	24	21	F	Filler	127	7	While	1	662.0	NA
127	24	21	F	Filler	127	7	Linda	2	132.0	NA
127	24	21	F	Filler	127	7	wrote	3	133.0	NA
127	24	21	F	Filler	127	7	the	4	85.0	NA
127	24	21	F	Filler	127	7	letter	5	81.0	NA
127	24	21	F	Filler	127	7	arrived	6	134.0	NA
127	24	21	F	Filler	127	7	from	7	67.0	NA
127	24	21	F	Filler	127	7	Chicago.	8	67.0	NA
127	24	21	F	Question	127	7	NA	NA	950.0	0
128	24	21	F	Filler	108	5	The	1	30.0	NA
128	24	21	F	Filler	108	5	museum	2	200.0	NA
128	24	21	F	Filler	108	5	wing	3	84.0	NA
128	24	21	F	Filler	108	5	which	4	99.0	NA
128	24	21	F	Filler	108	5	housed	5	167.0	NA
128	24	21	F	Filler	108	5	all	6	34.0	NA
128	24	21	F	Filler	108	5	the	7	149.0	NA
128	24	21	F	Filler	108	5	Picasso	8	99.0	NA
128	24	21	F	Filler	108	5	paintings	9	169.0	NA
128	24	21	F	Filler	108	5	was	10	33.0	NA
128	24	21	F	Filler	108	5	very	11	133.0	NA
128	24	21	F	Filler	108	5	crowded.	12	366.0	NA
128	24	21	F	Question	108	5	NA	NA	999.0	1
129	24	21	F	Filler	105	5	The	1	511.0	NA
129	24	21	F	Filler	105	5	actors	2	99.0	NA
129	24	21	F	Filler	105	5	rehearsed	3	167.0	NA
129	24	21	F	Filler	105	5	the	4	366.0	NA
129	24	21	F	Filler	105	5	play	5	150.0	NA
129	24	21	F	Filler	105	5	so	6	68.0	NA
129	24	21	F	Filler	105	5	much	7	133.0	NA
129	24	21	F	Filler	105	5	that	8	99.0	NA
129	24	21	F	Filler	105	5	they	9	52.0	NA
129	24	21	F	Filler	105	5	became	10	34.0	NA
129	24	21	F	Filler	105	5	bored	11	66.0	NA
129	24	21	F	Filler	105	5	with	12	99.0	NA
129	24	21	F	Filler	105	5	it.	13	169.0	NA
129	24	21	F	Question	105	5	NA	NA	1332.0	1
130	24	21	F	Filler	137	7	When	1	428.0	NA
130	24	21	F	Filler	137	7	Leslie	2	167.0	NA
130	24	21	F	Filler	137	7	was	3	68.0	NA
130	24	21	F	Filler	137	7	sneezing	4	32.0	NA
130	24	21	F	Filler	137	7	her	5	51.0	NA
130	24	21	F	Filler	137	7	friends	6	199.0	NA
130	24	21	F	Filler	137	7	laughed	7	33.0	NA
130	24	21	F	Filler	137	7	at	8	52.0	NA
130	24	21	F	Filler	137	7	her.	9	33.0	NA
130	24	21	F	Question	137	7	NA	NA	1499.0	1
131	24	21	F	swets	35	1	The	1	462.0	NA
131	24	21	F	swets	35	1	landlord	2	200.0	NA
131	24	21	F	swets	35	1	of	3	167.0	NA
131	24	21	F	swets	35	1	the	4	334.0	NA
131	24	21	F	swets	35	1	businessman	5	99.0	NA
131	24	21	F	swets	35	1	who	6	66.0	NA
131	24	21	F	swets	35	1	had	7	33.0	NA
131	24	21	F	swets	35	1	locked	8	33.0	NA
131	24	21	F	swets	35	1	himself	9	267.0	NA
131	24	21	F	swets	35	1	in	10	101.0	NA
131	24	21	F	swets	35	1	the	11	98.0	NA
131	24	21	F	swets	35	1	office	12	368.0	NA
131	24	21	F	swets	35	1	received	13	33.0	NA
131	24	21	F	swets	35	1	a	14	51.0	NA
131	24	21	F	swets	35	1	phone	15	166.0	NA
131	24	21	F	swets	35	1	call.	16	134.0	NA
131	24	21	F	Question	35	1	NA	NA	1116.0	1
132	24	21	F	Filler	88	5	The	1	446.0	NA
132	24	21	F	Filler	88	5	woman's	2	98.0	NA
132	24	21	F	Filler	88	5	posture	3	67.0	NA
132	24	21	F	Filler	88	5	began	4	68.0	NA
132	24	21	F	Filler	88	5	to	5	200.0	NA
132	24	21	F	Filler	88	5	go	6	34.0	NA
132	24	21	F	Filler	88	5	bad	7	634.0	NA
132	24	21	F	Filler	88	5	because	8	233.0	NA
132	24	21	F	Filler	88	5	of	9	82.0	NA
132	24	21	F	Filler	88	5	her	10	101.0	NA
132	24	21	F	Filler	88	5	constant	11	100.0	NA
132	24	21	F	Filler	88	5	slumping.	12	100.0	NA
132	24	21	F	Question	88	5	NA	NA	1333.0	1
133	24	21	F	Filler	64	4	Because	1	411.0	NA
133	24	21	F	Filler	64	4	a	2	67.0	NA
133	24	21	F	Filler	64	4	fire	3	101.0	NA
133	24	21	F	Filler	64	4	alarm	4	67.0	NA
133	24	21	F	Filler	64	4	interrupted	5	33.0	NA
133	24	21	F	Filler	64	4	the	6	84.0	NA
133	24	21	F	Filler	64	4	exam	7	66.0	NA
133	24	21	F	Filler	64	4	the	8	68.0	NA
133	24	21	F	Filler	64	4	scores	9	300.0	NA
133	24	21	F	Filler	64	4	were	10	83.0	NA
133	24	21	F	Filler	64	4	disqualified.	11	166.0	NA
133	24	21	F	Question	64	4	NA	NA	2800.0	1
134	24	21	F	Filler	37	4	The	1	278.0	NA
134	24	21	F	Filler	37	4	party	2	67.0	NA
134	24	21	F	Filler	37	4	attracted	3	234.0	NA
134	24	21	F	Filler	37	4	the	4	398.0	NA
134	24	21	F	Filler	37	4	fraternity	5	67.0	NA
134	24	21	F	Filler	37	4	members	6	68.0	NA
134	24	21	F	Filler	37	4	whose	7	67.0	NA
134	24	21	F	Filler	37	4	house	8	100.0	NA
134	24	21	F	Filler	37	4	had	9	66.0	NA
134	24	21	F	Filler	37	4	been	10	167.0	NA
134	24	21	F	Filler	37	4	seized	11	67.0	NA
134	24	21	F	Filler	37	4	by	12	65.0	NA
134	24	21	F	Filler	37	4	drug	13	34.0	NA
134	24	21	F	Filler	37	4	agents.	14	68.0	NA
134	24	21	F	Question	37	4	NA	NA	1767.0	1
135	24	21	F	swets	20	1	The	1	762.0	NA
135	24	21	F	swets	20	1	brother	2	367.0	NA
135	24	21	F	swets	20	1	of	3	67.0	NA
135	24	21	F	swets	20	1	the	4	33.0	NA
135	24	21	F	swets	20	1	count	5	34.0	NA
135	24	21	F	swets	20	1	who	6	15.0	NA
135	24	21	F	swets	20	1	crippled	7	35.0	NA
135	24	21	F	swets	20	1	himself	8	99.0	NA
135	24	21	F	swets	20	1	by	9	233.0	NA
135	24	21	F	swets	20	1	falling	10	202.0	NA
135	24	21	F	swets	20	1	off	11	33.0	NA
135	24	21	F	swets	20	1	a	12	117.0	NA
135	24	21	F	swets	20	1	horse	13	17.0	NA
135	24	21	F	swets	20	1	took	14	66.0	NA
135	24	21	F	swets	20	1	a	15	100.0	NA
135	24	21	F	swets	20	1	long	16	33.0	NA
135	24	21	F	swets	20	1	time	17	133.0	NA
135	24	21	F	swets	20	1	to	18	318.0	NA
135	24	21	F	swets	20	1	get	19	166.0	NA
135	24	21	F	swets	20	1	over	20	33.0	NA
135	24	21	F	swets	20	1	it.	21	33.0	NA
135	24	21	F	Question	20	1	NA	NA	1199.0	0
136	24	21	F	Filler	71	4	The	1	411.0	NA
136	24	21	F	Filler	71	4	elderly	2	135.0	NA
136	24	21	F	Filler	71	4	woman	3	100.0	NA
136	24	21	F	Filler	71	4	locked	4	67.0	NA
136	24	21	F	Filler	71	4	and	5	66.0	NA
136	24	21	F	Filler	71	4	bolted	6	66.0	NA
136	24	21	F	Filler	71	4	her	7	50.0	NA
136	24	21	F	Filler	71	4	door	8	68.0	NA
136	24	21	F	Filler	71	4	every	9	98.0	NA
136	24	21	F	Filler	71	4	night	10	35.0	NA
136	24	21	F	Filler	71	4	after	11	99.0	NA
136	24	21	F	Filler	71	4	the	12	34.0	NA
136	24	21	F	Filler	71	4	robbers	13	33.0	NA
136	24	21	F	Filler	71	4	took	14	67.0	NA
136	24	21	F	Filler	71	4	her	15	50.0	NA
136	24	21	F	Filler	71	4	best	16	66.0	NA
136	24	21	F	Filler	71	4	pearls.	17	67.0	NA
136	24	21	F	Question	71	4	NA	NA	1067.0	1
137	24	21	F	Filler	79	5	Although	1	294.0	NA
137	24	21	F	Filler	79	5	the	2	150.0	NA
137	24	21	F	Filler	79	5	mechanic	3	66.0	NA
137	24	21	F	Filler	79	5	said	4	100.0	NA
137	24	21	F	Filler	79	5	the	5	18.0	NA
137	24	21	F	Filler	79	5	job	6	100.0	NA
137	24	21	F	Filler	79	5	would	7	33.0	NA
137	24	21	F	Filler	79	5	take	8	99.0	NA
137	24	21	F	Filler	79	5	four	9	33.0	NA
137	24	21	F	Filler	79	5	days	10	68.0	NA
137	24	21	F	Filler	79	5	the	11	68.0	NA
137	24	21	F	Filler	79	5	client	12	66.0	NA
137	24	21	F	Filler	79	5	didn't	13	67.0	NA
137	24	21	F	Filler	79	5	receive	14	33.0	NA
137	24	21	F	Filler	79	5	her	15	49.0	NA
137	24	21	F	Filler	79	5	car	16	101.0	NA
137	24	21	F	Filler	79	5	for	17	33.0	NA
137	24	21	F	Filler	79	5	six	18	66.0	NA
137	24	21	F	Filler	79	5	weeks.	19	67.0	NA
137	24	21	F	Question	79	5	NA	NA	1067.0	1
138	24	21	F	Filler	67	4	The	1	445.0	NA
138	24	21	F	Filler	67	4	restaurant	2	133.0	NA
138	24	21	F	Filler	67	4	was	3	35.0	NA
138	24	21	F	Filler	67	4	famous	4	66.0	NA
138	24	21	F	Filler	67	4	for	5	34.0	NA
138	24	21	F	Filler	67	4	its	6	98.0	NA
138	24	21	F	Filler	67	4	French	7	34.0	NA
138	24	21	F	Filler	67	4	pastries	8	34.0	NA
138	24	21	F	Filler	67	4	and	9	67.0	NA
138	24	21	F	Filler	67	4	fine	10	99.0	NA
138	24	21	F	Filler	67	4	wines.	11	34.0	NA
138	24	21	F	Question	67	4	NA	NA	934.0	1
139	24	21	F	swets	21	2	The	1	410.0	NA
139	24	21	F	swets	21	2	wife	2	134.0	NA
139	24	21	F	swets	21	2	of	3	34.0	NA
139	24	21	F	swets	21	2	the	4	33.0	NA
139	24	21	F	swets	21	2	janitor	5	66.0	NA
139	24	21	F	swets	21	2	who	6	33.0	NA
139	24	21	F	swets	21	2	educated	7	35.0	NA
139	24	21	F	swets	21	2	himself	8	33.0	NA
139	24	21	F	swets	21	2	at	9	68.0	NA
139	24	21	F	swets	21	2	night	10	64.0	NA
139	24	21	F	swets	21	2	loved	11	34.0	NA
139	24	21	F	swets	21	2	going	12	34.0	NA
139	24	21	F	swets	21	2	to	13	17.0	NA
139	24	21	F	swets	21	2	the	14	84.0	NA
139	24	21	F	swets	21	2	theatre.	15	33.0	NA
139	24	21	F	Question	21	2	NA	NA	1683.0	0
140	24	21	F	Filler	101	5	The	1	395.0	NA
140	24	21	F	Filler	101	5	friendly	2	133.0	NA
140	24	21	F	Filler	101	5	woman	3	67.0	NA
140	24	21	F	Filler	101	5	was	4	34.0	NA
140	24	21	F	Filler	101	5	insulted	5	199.0	NA
140	24	21	F	Filler	101	5	by	6	65.0	NA
140	24	21	F	Filler	101	5	the	7	168.0	NA
140	24	21	F	Filler	101	5	rude	8	217.0	NA
140	24	21	F	Filler	101	5	stranger	9	32.0	NA
140	24	21	F	Filler	101	5	because	10	37.0	NA
140	24	21	F	Filler	101	5	he	11	49.0	NA
140	24	21	F	Filler	101	5	didn't	12	34.0	NA
140	24	21	F	Filler	101	5	smile	13	65.0	NA
140	24	21	F	Filler	101	5	at	14	151.0	NA
140	24	21	F	Filler	101	5	her.	15	33.0	NA
140	24	21	F	Question	101	5	NA	NA	1450.0	1
141	24	21	F	Filler	75	5	The	1	462.0	NA
141	24	21	F	Filler	75	5	musician	2	134.0	NA
141	24	21	F	Filler	75	5	shocked	3	33.0	NA
141	24	21	F	Filler	75	5	the	4	67.0	NA
141	24	21	F	Filler	75	5	audience	5	32.0	NA
141	24	21	F	Filler	75	5	because	6	67.0	NA
141	24	21	F	Filler	75	5	they	7	166.0	NA
141	24	21	F	Filler	75	5	did	8	135.0	NA
141	24	21	F	Filler	75	5	not	9	34.0	NA
141	24	21	F	Filler	75	5	realize	10	165.0	NA
141	24	21	F	Filler	75	5	what	11	34.0	NA
141	24	21	F	Filler	75	5	these	12	33.0	NA
141	24	21	F	Filler	75	5	shows	13	117.0	NA
141	24	21	F	Filler	75	5	were	14	51.0	NA
141	24	21	F	Filler	75	5	like.	15	165.0	NA
141	24	21	F	Question	75	5	NA	NA	1802.0	0
142	24	21	F	swets	14	1	The	1	211.0	NA
142	24	21	F	swets	14	1	mother	2	167.0	NA
142	24	21	F	swets	14	1	of	3	133.0	NA
142	24	21	F	swets	14	1	the	4	216.0	NA
142	24	21	F	swets	14	1	nurse	5	33.0	NA
142	24	21	F	swets	14	1	who	6	83.0	NA
142	24	21	F	swets	14	1	injured	7	33.0	NA
142	24	21	F	swets	14	1	herself	8	235.0	NA
142	24	21	F	swets	14	1	last	9	33.0	NA
142	24	21	F	swets	14	1	summer	10	99.0	NA
142	24	21	F	swets	14	1	had	11	33.0	NA
142	24	21	F	swets	14	1	lived	12	34.0	NA
142	24	21	F	swets	14	1	in	13	117.0	NA
142	24	21	F	swets	14	1	Wales.	14	166.0	NA
142	24	21	F	Question	14	1	NA	NA	1184.0	0
143	24	21	F	Filler	96	5	The	1	328.0	NA
143	24	21	F	Filler	96	5	evil	2	133.0	NA
143	24	21	F	Filler	96	5	man	3	283.0	NA
143	24	21	F	Filler	96	5	watched	4	167.0	NA
143	24	21	F	Filler	96	5	the	5	34.0	NA
143	24	21	F	Filler	96	5	doorway	6	33.0	NA
143	24	21	F	Filler	96	5	of	7	34.0	NA
143	24	21	F	Filler	96	5	the	8	48.0	NA
143	24	21	F	Filler	96	5	bar	9	35.0	NA
143	24	21	F	Filler	96	5	every	10	33.0	NA
143	24	21	F	Filler	96	5	Friday	11	132.0	NA
143	24	21	F	Filler	96	5	night.	12	136.0	NA
143	24	21	F	Question	96	5	NA	NA	766.0	1
