trial	subj	age	gender	stimulustype	item	condition	word	position	rt	correct
0	25	22	M	Filler	90	5	The	1	2596.0	NA
0	25	22	M	Filler	90	5	artist	2	332.0	NA
0	25	22	M	Filler	90	5	was	3	316.0	NA
0	25	22	M	Filler	90	5	not	4	334.0	NA
0	25	22	M	Filler	90	5	satisfied	5	267.0	NA
0	25	22	M	Filler	90	5	with	6	300.0	NA
0	25	22	M	Filler	90	5	his	7	317.0	NA
0	25	22	M	Filler	90	5	painting	8	284.0	NA
0	25	22	M	Filler	90	5	because	9	348.0	NA
0	25	22	M	Filler	90	5	the	10	284.0	NA
0	25	22	M	Filler	90	5	shading	11	333.0	NA
0	25	22	M	Filler	90	5	was	12	334.0	NA
0	25	22	M	Filler	90	5	off.	13	283.0	NA
0	25	22	M	Question	90	5	NA	NA	2034.0	1
1	25	22	M	swets	34	1	The	1	478.0	NA
1	25	22	M	swets	34	1	waitress	2	484.0	NA
1	25	22	M	swets	34	1	of	3	366.0	NA
1	25	22	M	swets	34	1	the	4	317.0	NA
1	25	22	M	swets	34	1	woman	5	316.0	NA
1	25	22	M	swets	34	1	who	6	317.0	NA
1	25	22	M	swets	34	1	considered	7	1016.0	NA
1	25	22	M	swets	34	1	herself	8	302.0	NA
1	25	22	M	swets	34	1	a	9	249.0	NA
1	25	22	M	swets	34	1	natural	10	250.0	NA
1	25	22	M	swets	34	1	beauty	11	334.0	NA
1	25	22	M	swets	34	1	spilled	12	299.0	NA
1	25	22	M	swets	34	1	the	13	334.0	NA
1	25	22	M	swets	34	1	drinks.	14	300.0	NA
1	25	22	M	Question	34	1	NA	NA	3532.0	1
2	25	22	M	Filler	102	5	The	1	418.0	NA
2	25	22	M	Filler	102	5	old	2	366.0	NA
2	25	22	M	Filler	102	5	man	3	300.0	NA
2	25	22	M	Filler	102	5	appeared	4	283.0	NA
2	25	22	M	Filler	102	5	to	5	334.0	NA
2	25	22	M	Filler	102	5	be	6	334.0	NA
2	25	22	M	Filler	102	5	upset	7	333.0	NA
2	25	22	M	Filler	102	5	by	8	299.0	NA
2	25	22	M	Filler	102	5	the	9	334.0	NA
2	25	22	M	Filler	102	5	teenager's	10	301.0	NA
2	25	22	M	Filler	102	5	ignorant	11	414.0	NA
2	25	22	M	Filler	102	5	remark.	12	335.0	NA
2	25	22	M	Question	102	5	NA	NA	1399.0	1
3	25	22	M	Filler	117	6	While	1	549.0	NA
3	25	22	M	Filler	117	6	Mike	2	451.0	NA
3	25	22	M	Filler	117	6	coughed	3	367.0	NA
3	25	22	M	Filler	117	6	Janet	4	332.0	NA
3	25	22	M	Filler	117	6	went	5	334.0	NA
3	25	22	M	Filler	117	6	out	6	367.0	NA
3	25	22	M	Filler	117	6	to	7	366.0	NA
3	25	22	M	Filler	117	6	get	8	317.0	NA
3	25	22	M	Filler	117	6	some	9	350.0	NA
3	25	22	M	Filler	117	6	cough	10	417.0	NA
3	25	22	M	Filler	117	6	medicine.	11	366.0	NA
3	25	22	M	Question	117	6	NA	NA	1215.0	1
4	25	22	M	swets	18	3	The	1	564.0	NA
4	25	22	M	swets	18	3	niece	2	634.0	NA
4	25	22	M	swets	18	3	of	3	449.0	NA
4	25	22	M	swets	18	3	the	4	334.0	NA
4	25	22	M	swets	18	3	fisherman	5	383.0	NA
4	25	22	M	swets	18	3	who	6	418.0	NA
4	25	22	M	swets	18	3	drowned	7	465.0	NA
4	25	22	M	swets	18	3	herself	8	384.0	NA
4	25	22	M	swets	18	3	in	9	417.0	NA
4	25	22	M	swets	18	3	the	10	334.0	NA
4	25	22	M	swets	18	3	ocean	11	299.0	NA
4	25	22	M	swets	18	3	didn't	12	351.0	NA
4	25	22	M	swets	18	3	know	13	382.0	NA
4	25	22	M	swets	18	3	about	14	367.0	NA
4	25	22	M	swets	18	3	the	15	351.0	NA
4	25	22	M	swets	18	3	tricky	16	349.0	NA
4	25	22	M	swets	18	3	current.	17	318.0	NA
4	25	22	M	Question	18	3	NA	NA	1500.0	1
5	25	22	M	Filler	54	4	The	1	429.0	NA
5	25	22	M	Filler	54	4	video	2	383.0	NA
5	25	22	M	Filler	54	4	screen	3	301.0	NA
5	25	22	M	Filler	54	4	of	4	316.0	NA
5	25	22	M	Filler	54	4	the	5	367.0	NA
5	25	22	M	Filler	54	4	monitor	6	399.0	NA
5	25	22	M	Filler	54	4	made	7	368.0	NA
5	25	22	M	Filler	54	4	strange	8	383.0	NA
5	25	22	M	Filler	54	4	noises	9	316.0	NA
5	25	22	M	Filler	54	4	and	10	367.0	NA
5	25	22	M	Filler	54	4	started	11	299.0	NA
5	25	22	M	Filler	54	4	emitting	12	301.0	NA
5	25	22	M	Filler	54	4	strange	13	300.0	NA
5	25	22	M	Filler	54	4	flashes.	14	317.0	NA
5	25	22	M	Question	54	4	NA	NA	1867.0	1
6	25	22	M	Filler	48	4	The	1	328.0	NA
6	25	22	M	Filler	48	4	police	2	350.0	NA
6	25	22	M	Filler	48	4	arrested	3	335.0	NA
6	25	22	M	Filler	48	4	the	4	365.0	NA
6	25	22	M	Filler	48	4	sister	5	367.0	NA
6	25	22	M	Filler	48	4	of	6	366.0	NA
6	25	22	M	Filler	48	4	the	7	317.0	NA
6	25	22	M	Filler	48	4	handyman	8	317.0	NA
6	25	22	M	Filler	48	4	after	9	716.0	NA
6	25	22	M	Filler	48	4	she	10	450.0	NA
6	25	22	M	Filler	48	4	recently	11	500.0	NA
6	25	22	M	Filler	48	4	gave	12	333.0	NA
6	25	22	M	Filler	48	4	birth	13	351.0	NA
6	25	22	M	Filler	48	4	to	14	400.0	NA
6	25	22	M	Filler	48	4	twins.	15	415.0	NA
6	25	22	M	Question	48	4	NA	NA	1400.0	1
7	25	22	M	swets	32	2	The	1	344.0	NA
7	25	22	M	swets	32	2	nephew	2	500.0	NA
7	25	22	M	swets	32	2	of	3	383.0	NA
7	25	22	M	swets	32	2	the	4	368.0	NA
7	25	22	M	swets	32	2	duchess	5	317.0	NA
7	25	22	M	swets	32	2	who	6	515.0	NA
7	25	22	M	swets	32	2	looked	7	450.0	NA
7	25	22	M	swets	32	2	at	8	368.0	NA
7	25	22	M	swets	32	2	herself	9	383.0	NA
7	25	22	M	swets	32	2	in	10	467.0	NA
7	25	22	M	swets	32	2	the	11	649.0	NA
7	25	22	M	swets	32	2	mirror	12	466.0	NA
7	25	22	M	swets	32	2	wore	13	434.0	NA
7	25	22	M	swets	32	2	a	14	467.0	NA
7	25	22	M	swets	32	2	blue	15	433.0	NA
7	25	22	M	swets	32	2	shirt.	16	416.0	NA
7	25	22	M	Question	32	2	NA	NA	5402.0	1
8	25	22	M	Filler	70	4	The	1	2227.0	NA
8	25	22	M	Filler	70	4	warden	2	518.0	NA
8	25	22	M	Filler	70	4	was	3	432.0	NA
8	25	22	M	Filler	70	4	dissatisfied	4	401.0	NA
8	25	22	M	Filler	70	4	with	5	400.0	NA
8	25	22	M	Filler	70	4	the	6	417.0	NA
8	25	22	M	Filler	70	4	decision	7	401.0	NA
8	25	22	M	Filler	70	4	of	8	383.0	NA
8	25	22	M	Filler	70	4	the	9	415.0	NA
8	25	22	M	Filler	70	4	parole	10	450.0	NA
8	25	22	M	Filler	70	4	committee	11	401.0	NA
8	25	22	M	Filler	70	4	to	12	401.0	NA
8	25	22	M	Filler	70	4	pardon	13	434.0	NA
8	25	22	M	Filler	70	4	the	14	399.0	NA
8	25	22	M	Filler	70	4	prisoner.	15	449.0	NA
8	25	22	M	Question	70	4	NA	NA	1901.0	1
9	25	22	M	Filler	52	4	The	1	246.0	NA
9	25	22	M	Filler	52	4	students	2	416.0	NA
9	25	22	M	Filler	52	4	were	3	249.0	NA
9	25	22	M	Filler	52	4	bored	4	267.0	NA
9	25	22	M	Filler	52	4	by	5	166.0	NA
9	25	22	M	Filler	52	4	the	6	119.0	NA
9	25	22	M	Filler	52	4	teacher.	7	165.0	NA
9	25	22	M	Question	52	4	NA	NA	1268.0	1
10	25	22	M	Filler	101	5	The	1	1078.0	NA
10	25	22	M	Filler	101	5	friendly	2	284.0	NA
10	25	22	M	Filler	101	5	woman	3	84.0	NA
10	25	22	M	Filler	101	5	was	4	216.0	NA
10	25	22	M	Filler	101	5	insulted	5	133.0	NA
10	25	22	M	Filler	101	5	by	6	266.0	NA
10	25	22	M	Filler	101	5	the	7	101.0	NA
10	25	22	M	Filler	101	5	rude	8	166.0	NA
10	25	22	M	Filler	101	5	stranger	9	150.0	NA
10	25	22	M	Filler	101	5	because	10	168.0	NA
10	25	22	M	Filler	101	5	he	11	183.0	NA
10	25	22	M	Filler	101	5	didn't	12	117.0	NA
10	25	22	M	Filler	101	5	smile	13	133.0	NA
10	25	22	M	Filler	101	5	at	14	83.0	NA
10	25	22	M	Filler	101	5	her.	15	166.0	NA
10	25	22	M	Question	101	5	NA	NA	1266.0	1
11	25	22	M	swets	26	2	The	1	133.0	NA
11	25	22	M	swets	26	2	grand-niece	2	382.0	NA
11	25	22	M	swets	26	2	of	3	85.0	NA
11	25	22	M	swets	26	2	the	4	283.0	NA
11	25	22	M	swets	26	2	admiral	5	116.0	NA
11	25	22	M	swets	26	2	who	6	300.0	NA
11	25	22	M	swets	26	2	wrote	7	284.0	NA
11	25	22	M	swets	26	2	himself	8	166.0	NA
11	25	22	M	swets	26	2	a	9	84.0	NA
11	25	22	M	swets	26	2	note	10	283.0	NA
11	25	22	M	swets	26	2	admired	11	84.0	NA
11	25	22	M	swets	26	2	sailors	12	132.0	NA
11	25	22	M	swets	26	2	very	13	318.0	NA
11	25	22	M	swets	26	2	much.	14	249.0	NA
11	25	22	M	Question	26	2	NA	NA	2766.0	0
12	25	22	M	Filler	131	7	While	1	329.0	NA
12	25	22	M	Filler	131	7	Jamie	2	284.0	NA
12	25	22	M	Filler	131	7	dried	3	317.0	NA
12	25	22	M	Filler	131	7	off	4	233.0	NA
12	25	22	M	Filler	131	7	the	5	233.0	NA
12	25	22	M	Filler	131	7	table	6	200.0	NA
12	25	22	M	Filler	131	7	his	7	184.0	NA
12	25	22	M	Filler	131	7	sunglasses	8	183.0	NA
12	25	22	M	Filler	131	7	disappeared.	9	166.0	NA
12	25	22	M	Question	131	7	NA	NA	2701.0	1
13	25	22	M	Filler	76	5	After	1	429.0	NA
13	25	22	M	Filler	76	5	fifty	2	215.0	NA
13	25	22	M	Filler	76	5	years	3	135.0	NA
13	25	22	M	Filler	76	5	of	4	217.0	NA
13	25	22	M	Filler	76	5	marriage	5	100.0	NA
13	25	22	M	Filler	76	5	the	6	117.0	NA
13	25	22	M	Filler	76	5	old	7	217.0	NA
13	25	22	M	Filler	76	5	couple	8	149.0	NA
13	25	22	M	Filler	76	5	still	9	350.0	NA
13	25	22	M	Filler	76	5	felt	10	99.0	NA
13	25	22	M	Filler	76	5	the	11	202.0	NA
13	25	22	M	Filler	76	5	same	12	116.0	NA
13	25	22	M	Filler	76	5	about	13	100.0	NA
13	25	22	M	Filler	76	5	each	14	117.0	NA
13	25	22	M	Filler	76	5	other	15	216.0	NA
13	25	22	M	Filler	76	5	as	16	118.0	NA
13	25	22	M	Filler	76	5	they	17	315.0	NA
13	25	22	M	Filler	76	5	had	18	84.0	NA
13	25	22	M	Filler	76	5	on	19	82.0	NA
13	25	22	M	Filler	76	5	their	20	185.0	NA
13	25	22	M	Filler	76	5	wedding	21	67.0	NA
13	25	22	M	Filler	76	5	day.	22	82.0	NA
13	25	22	M	Question	76	5	NA	NA	1284.0	1
14	25	22	M	swets	35	2	The	1	462.0	NA
14	25	22	M	swets	35	2	landlady	2	116.0	NA
14	25	22	M	swets	35	2	of	3	84.0	NA
14	25	22	M	swets	35	2	the	4	333.0	NA
14	25	22	M	swets	35	2	businessman	5	100.0	NA
14	25	22	M	swets	35	2	who	6	67.0	NA
14	25	22	M	swets	35	2	had	7	367.0	NA
14	25	22	M	swets	35	2	locked	8	66.0	NA
14	25	22	M	swets	35	2	himself	9	367.0	NA
14	25	22	M	swets	35	2	in	10	101.0	NA
14	25	22	M	swets	35	2	the	11	283.0	NA
14	25	22	M	swets	35	2	office	12	99.0	NA
14	25	22	M	swets	35	2	received	13	334.0	NA
14	25	22	M	swets	35	2	a	14	333.0	NA
14	25	22	M	swets	35	2	phone	15	218.0	NA
14	25	22	M	swets	35	2	call.	16	283.0	NA
14	25	22	M	Question	35	2	NA	NA	1399.0	1
15	25	22	M	Filler	118	6	As	1	327.0	NA
15	25	22	M	Filler	118	6	the	2	201.0	NA
15	25	22	M	Filler	118	6	dog	3	101.0	NA
15	25	22	M	Filler	118	6	ran	4	215.0	NA
15	25	22	M	Filler	118	6	Wanda	5	83.0	NA
15	25	22	M	Filler	118	6	watched	6	167.0	NA
15	25	22	M	Filler	118	6	from	7	334.0	NA
15	25	22	M	Filler	118	6	the	8	100.0	NA
15	25	22	M	Filler	118	6	window.	9	99.0	NA
15	25	22	M	Question	118	6	NA	NA	1234.0	1
16	25	22	M	Filler	42	4	After	1	362.0	NA
16	25	22	M	Filler	42	4	dinner	2	100.0	NA
16	25	22	M	Filler	42	4	the	3	98.0	NA
16	25	22	M	Filler	42	4	children	4	351.0	NA
16	25	22	M	Filler	42	4	gathered	5	50.0	NA
16	25	22	M	Filler	42	4	in	6	82.0	NA
16	25	22	M	Filler	42	4	a	7	333.0	NA
16	25	22	M	Filler	42	4	circle	8	67.0	NA
16	25	22	M	Filler	42	4	to	9	67.0	NA
16	25	22	M	Filler	42	4	listen	10	349.0	NA
16	25	22	M	Filler	42	4	to	11	51.0	NA
16	25	22	M	Filler	42	4	their	12	82.0	NA
16	25	22	M	Filler	42	4	grandmother's	13	502.0	NA
16	25	22	M	Filler	42	4	stories	14	82.0	NA
16	25	22	M	Filler	42	4	about	15	450.0	NA
16	25	22	M	Filler	42	4	the	16	334.0	NA
16	25	22	M	Filler	42	4	good	17	235.0	NA
16	25	22	M	Filler	42	4	old	18	249.0	NA
16	25	22	M	Filler	42	4	days.	19	200.0	NA
16	25	22	M	Question	42	4	NA	NA	4799.0	0
17	25	22	M	Filler	64	4	Because	1	427.0	NA
17	25	22	M	Filler	64	4	a	2	167.0	NA
17	25	22	M	Filler	64	4	fire	3	284.0	NA
17	25	22	M	Filler	64	4	alarm	4	283.0	NA
17	25	22	M	Filler	64	4	interrupted	5	317.0	NA
17	25	22	M	Filler	64	4	the	6	333.0	NA
17	25	22	M	Filler	64	4	exam	7	284.0	NA
17	25	22	M	Filler	64	4	the	8	300.0	NA
17	25	22	M	Filler	64	4	scores	9	234.0	NA
17	25	22	M	Filler	64	4	were	10	216.0	NA
17	25	22	M	Filler	64	4	disqualified.	11	166.0	NA
17	25	22	M	Question	64	4	NA	NA	1334.0	1
18	25	22	M	Filler	61	4	The	1	411.0	NA
18	25	22	M	Filler	61	4	lemon	2	167.0	NA
18	25	22	M	Filler	61	4	squirted	3	332.0	NA
18	25	22	M	Filler	61	4	into	4	250.0	NA
18	25	22	M	Filler	61	4	the	5	151.0	NA
18	25	22	M	Filler	61	4	debutante's	6	116.0	NA
18	25	22	M	Filler	61	4	eye	7	100.0	NA
18	25	22	M	Filler	61	4	as	8	468.0	NA
18	25	22	M	Filler	61	4	she	9	283.0	NA
18	25	22	M	Filler	61	4	tried	10	233.0	NA
18	25	22	M	Filler	61	4	to	11	167.0	NA
18	25	22	M	Filler	61	4	impress	12	100.0	NA
18	25	22	M	Filler	61	4	her	13	266.0	NA
18	25	22	M	Filler	61	4	mother's	14	201.0	NA
18	25	22	M	Filler	61	4	society	15	315.0	NA
18	25	22	M	Filler	61	4	friends.	16	318.0	NA
18	25	22	M	Question	61	4	NA	NA	2999.0	1
19	25	22	M	Filler	142	7	The	1	346.0	NA
19	25	22	M	Filler	142	7	cats	2	232.0	NA
19	25	22	M	Filler	142	7	and	3	151.0	NA
19	25	22	M	Filler	142	7	dogs	4	283.0	NA
19	25	22	M	Filler	142	7	glared	5	183.0	NA
19	25	22	M	Filler	142	7	at	6	249.0	NA
19	25	22	M	Filler	142	7	each	7	168.0	NA
19	25	22	M	Filler	142	7	other	8	166.0	NA
19	25	22	M	Filler	142	7	warily.	9	116.0	NA
19	25	22	M	Question	142	7	NA	NA	2634.0	0
20	25	22	M	swets	31	1	The	1	361.0	NA
20	25	22	M	swets	31	1	uncle	2	283.0	NA
20	25	22	M	swets	31	1	of	3	150.0	NA
20	25	22	M	swets	31	1	the	4	218.0	NA
20	25	22	M	swets	31	1	milkman	5	166.0	NA
20	25	22	M	swets	31	1	who	6	250.0	NA
20	25	22	M	swets	31	1	had	7	217.0	NA
20	25	22	M	swets	31	1	to	8	217.0	NA
20	25	22	M	swets	31	1	support	9	182.0	NA
20	25	22	M	swets	31	1	himself	10	285.0	NA
20	25	22	M	swets	31	1	with	11	200.0	NA
20	25	22	M	swets	31	1	a	12	250.0	NA
20	25	22	M	swets	31	1	low	13	232.0	NA
20	25	22	M	swets	31	1	income	14	234.0	NA
20	25	22	M	swets	31	1	liked	15	250.0	NA
20	25	22	M	swets	31	1	to	16	251.0	NA
20	25	22	M	swets	31	1	fish.	17	266.0	NA
20	25	22	M	Question	31	1	NA	NA	7699.0	1
21	25	22	M	Filler	77	5	Outside	1	545.0	NA
21	25	22	M	Filler	77	5	the	2	234.0	NA
21	25	22	M	Filler	77	5	courthouse	3	316.0	NA
21	25	22	M	Filler	77	5	the	4	333.0	NA
21	25	22	M	Filler	77	5	committee	5	250.0	NA
21	25	22	M	Filler	77	5	awarded	6	234.0	NA
21	25	22	M	Filler	77	5	a	7	249.0	NA
21	25	22	M	Filler	77	5	lifetime	8	167.0	NA
21	25	22	M	Filler	77	5	achievement	9	283.0	NA
21	25	22	M	Filler	77	5	prize	10	301.0	NA
21	25	22	M	Filler	77	5	to	11	282.0	NA
21	25	22	M	Filler	77	5	the	12	168.0	NA
21	25	22	M	Filler	77	5	creator	13	117.0	NA
21	25	22	M	Filler	77	5	of	14	234.0	NA
21	25	22	M	Filler	77	5	the	15	100.0	NA
21	25	22	M	Filler	77	5	sculpture.	16	116.0	NA
21	25	22	M	Question	77	5	NA	NA	1599.0	1
22	25	22	M	swets	22	1	The	1	362.0	NA
22	25	22	M	swets	22	1	nephew	2	65.0	NA
22	25	22	M	swets	22	1	of	3	334.0	NA
22	25	22	M	swets	22	1	the	4	83.0	NA
22	25	22	M	swets	22	1	commander	5	84.0	NA
22	25	22	M	swets	22	1	who	6	400.0	NA
22	25	22	M	swets	22	1	calmed	7	83.0	NA
22	25	22	M	swets	22	1	himself	8	317.0	NA
22	25	22	M	swets	22	1	after	9	99.0	NA
22	25	22	M	swets	22	1	the	10	267.0	NA
22	25	22	M	swets	22	1	tragedy	11	68.0	NA
22	25	22	M	swets	22	1	was	12	399.0	NA
22	25	22	M	swets	22	1	waiting	13	49.0	NA
22	25	22	M	swets	22	1	for	14	101.0	NA
22	25	22	M	swets	22	1	the	15	267.0	NA
22	25	22	M	swets	22	1	doctor.	16	67.0	NA
22	25	22	M	Question	22	1	NA	NA	1767.0	0
23	25	22	M	Filler	80	5	The	1	395.0	NA
23	25	22	M	Filler	80	5	stepfather	2	116.0	NA
23	25	22	M	Filler	80	5	of	3	316.0	NA
23	25	22	M	Filler	80	5	the	4	235.0	NA
23	25	22	M	Filler	80	5	nun	5	166.0	NA
23	25	22	M	Filler	80	5	with	6	217.0	NA
23	25	22	M	Filler	80	5	a	7	201.0	NA
23	25	22	M	Filler	80	5	long	8	183.0	NA
23	25	22	M	Filler	80	5	white	9	117.0	NA
23	25	22	M	Filler	80	5	beard	10	132.0	NA
23	25	22	M	Filler	80	5	became	11	118.0	NA
23	25	22	M	Filler	80	5	very	12	331.0	NA
23	25	22	M	Filler	80	5	ill.	13	117.0	NA
23	25	22	M	Question	80	5	NA	NA	1068.0	1
24	25	22	M	Filler	122	6	They	1	362.0	NA
24	25	22	M	Filler	122	6	don't	2	99.0	NA
24	25	22	M	Filler	122	6	know	3	201.0	NA
24	25	22	M	Filler	122	6	which	4	83.0	NA
24	25	22	M	Filler	122	6	family	5	133.0	NA
24	25	22	M	Filler	122	6	the	6	334.0	NA
24	25	22	M	Filler	122	6	hijackers	7	84.0	NA
24	25	22	M	Filler	122	6	held	8	100.0	NA
24	25	22	M	Filler	122	6	hostage	9	434.0	NA
24	25	22	M	Filler	122	6	but	10	81.0	NA
24	25	22	M	Filler	122	6	didn't	11	335.0	NA
24	25	22	M	Filler	122	6	hurt	12	82.0	NA
24	25	22	M	Filler	122	6	the	13	351.0	NA
24	25	22	M	Filler	122	6	children	14	82.0	NA
24	25	22	M	Filler	122	6	of	15	401.0	NA
24	25	22	M	Filler	122	6	too	16	283.0	NA
24	25	22	M	Filler	122	6	much.	17	300.0	NA
24	25	22	M	Question	122	6	NA	NA	1466.0	1
25	25	22	M	swets	5	2	The	1	445.0	NA
25	25	22	M	swets	5	2	aunt	2	349.0	NA
25	25	22	M	swets	5	2	of	3	135.0	NA
25	25	22	M	swets	5	2	the	4	166.0	NA
25	25	22	M	swets	5	2	bishop	5	150.0	NA
25	25	22	M	swets	5	2	who	6	133.0	NA
25	25	22	M	swets	5	2	injured	7	433.0	NA
25	25	22	M	swets	5	2	himself	8	200.0	NA
25	25	22	M	swets	5	2	last	9	382.0	NA
25	25	22	M	swets	5	2	summer	10	283.0	NA
25	25	22	M	swets	5	2	was	11	317.0	NA
25	25	22	M	swets	5	2	concerned	12	317.0	NA
25	25	22	M	swets	5	2	about	13	267.0	NA
25	25	22	M	swets	5	2	the	14	234.0	NA
25	25	22	M	swets	5	2	infection.	15	267.0	NA
25	25	22	M	Question	5	2	NA	NA	2466.0	1
26	25	22	M	Filler	120	6	Sarah	1	461.0	NA
26	25	22	M	Filler	120	6	won't	2	150.0	NA
26	25	22	M	Filler	120	6	reveal	3	267.0	NA
26	25	22	M	Filler	120	6	which	4	168.0	NA
26	25	22	M	Filler	120	6	race	5	431.0	NA
26	25	22	M	Filler	120	6	she	6	217.0	NA
26	25	22	M	Filler	120	6	won	7	201.0	NA
26	25	22	M	Filler	120	6	without	8	299.0	NA
26	25	22	M	Filler	120	6	entering	9	200.0	NA
26	25	22	M	Filler	120	6	the	10	234.0	NA
26	25	22	M	Filler	120	6	competition	11	267.0	NA
26	25	22	M	Filler	120	6	for	12	301.0	NA
26	25	22	M	Filler	120	6	officially.	13	215.0	NA
26	25	22	M	Question	120	6	NA	NA	1200.0	1
27	25	22	M	swets	19	1	The	1	394.0	NA
27	25	22	M	swets	19	1	neighbor	2	133.0	NA
27	25	22	M	swets	19	1	of	3	317.0	NA
27	25	22	M	swets	19	1	the	4	118.0	NA
27	25	22	M	swets	19	1	actor	5	266.0	NA
27	25	22	M	swets	19	1	who	6	116.0	NA
27	25	22	M	swets	19	1	hated	7	332.0	NA
27	25	22	M	swets	19	1	himself	8	85.0	NA
27	25	22	M	swets	19	1	for	9	449.0	NA
27	25	22	M	swets	19	1	lying	10	101.0	NA
27	25	22	M	swets	19	1	left	11	383.0	NA
27	25	22	M	swets	19	1	town	12	333.0	NA
27	25	22	M	swets	19	1	in	13	284.0	NA
27	25	22	M	swets	19	1	a	14	300.0	NA
27	25	22	M	swets	19	1	hurry.	15	317.0	NA
27	25	22	M	Question	19	1	NA	NA	1334.0	0
28	25	22	M	Filler	91	5	The	1	383.0	NA
28	25	22	M	Filler	91	5	workman	2	165.0	NA
28	25	22	M	Filler	91	5	dropped	3	233.0	NA
28	25	22	M	Filler	91	5	the	4	285.0	NA
28	25	22	M	Filler	91	5	assistant	5	132.0	NA
28	25	22	M	Filler	91	5	who	6	117.0	NA
28	25	22	M	Filler	91	5	complained	7	334.0	NA
28	25	22	M	Filler	91	5	bitterly	8	149.0	NA
28	25	22	M	Filler	91	5	onto	9	100.0	NA
28	25	22	M	Filler	91	5	a	10	318.0	NA
28	25	22	M	Filler	91	5	lower	11	84.0	NA
28	25	22	M	Filler	91	5	floor.	12	316.0	NA
28	25	22	M	Question	91	5	NA	NA	1765.0	1
29	25	22	M	Filler	109	6	While	1	448.0	NA
29	25	22	M	Filler	109	6	the	2	100.0	NA
29	25	22	M	Filler	109	6	farmer	3	234.0	NA
29	25	22	M	Filler	109	6	steered	4	100.0	NA
29	25	22	M	Filler	109	6	the	5	266.0	NA
29	25	22	M	Filler	109	6	truck	6	116.0	NA
29	25	22	M	Filler	109	6	the	7	351.0	NA
29	25	22	M	Filler	109	6	tractor	8	267.0	NA
29	25	22	M	Filler	109	6	pulled	9	200.0	NA
29	25	22	M	Filler	109	6	the	10	100.0	NA
29	25	22	M	Filler	109	6	plough.	11	182.0	NA
29	25	22	M	Question	109	6	NA	NA	1535.0	1
30	25	22	M	swets	8	2	The	1	314.0	NA
30	25	22	M	swets	8	2	brother	2	282.0	NA
30	25	22	M	swets	8	2	of	3	235.0	NA
30	25	22	M	swets	8	2	the	4	232.0	NA
30	25	22	M	swets	8	2	seamstress	5	150.0	NA
30	25	22	M	swets	8	2	who	6	501.0	NA
30	25	22	M	swets	8	2	entertained	7	299.0	NA
30	25	22	M	swets	8	2	herself	8	367.0	NA
30	25	22	M	swets	8	2	most	9	267.0	NA
30	25	22	M	swets	8	2	evenings	10	366.0	NA
30	25	22	M	swets	8	2	was	11	300.0	NA
30	25	22	M	swets	8	2	reading	12	384.0	NA
30	25	22	M	swets	8	2	a	13	317.0	NA
30	25	22	M	swets	8	2	book.	14	333.0	NA
30	25	22	M	Question	8	2	NA	NA	1966.0	1
31	25	22	M	Filler	79	5	Although	1	445.0	NA
31	25	22	M	Filler	79	5	the	2	117.0	NA
31	25	22	M	Filler	79	5	mechanic	3	233.0	NA
31	25	22	M	Filler	79	5	said	4	266.0	NA
31	25	22	M	Filler	79	5	the	5	267.0	NA
31	25	22	M	Filler	79	5	job	6	234.0	NA
31	25	22	M	Filler	79	5	would	7	184.0	NA
31	25	22	M	Filler	79	5	take	8	167.0	NA
31	25	22	M	Filler	79	5	four	9	116.0	NA
31	25	22	M	Filler	79	5	days	10	133.0	NA
31	25	22	M	Filler	79	5	the	11	100.0	NA
31	25	22	M	Filler	79	5	client	12	167.0	NA
31	25	22	M	Filler	79	5	didn't	13	117.0	NA
31	25	22	M	Filler	79	5	receive	14	149.0	NA
31	25	22	M	Filler	79	5	her	15	84.0	NA
31	25	22	M	Filler	79	5	car	16	134.0	NA
31	25	22	M	Filler	79	5	for	17	82.0	NA
31	25	22	M	Filler	79	5	six	18	133.0	NA
31	25	22	M	Filler	79	5	weeks.	19	85.0	NA
31	25	22	M	Question	79	5	NA	NA	1265.0	1
32	25	22	M	swets	15	3	The	1	311.0	NA
32	25	22	M	swets	15	3	husband	2	102.0	NA
32	25	22	M	swets	15	3	of	3	65.0	NA
32	25	22	M	swets	15	3	the	4	151.0	NA
32	25	22	M	swets	15	3	beautician	5	99.0	NA
32	25	22	M	swets	15	3	who	6	100.0	NA
32	25	22	M	swets	15	3	cut	7	301.0	NA
32	25	22	M	swets	15	3	himself	8	134.0	NA
32	25	22	M	swets	15	3	on	9	99.0	NA
32	25	22	M	swets	15	3	the	10	183.0	NA
32	25	22	M	swets	15	3	broken	11	117.0	NA
32	25	22	M	swets	15	3	glass	12	133.0	NA
32	25	22	M	swets	15	3	phoned	13	185.0	NA
32	25	22	M	swets	15	3	for	14	99.0	NA
32	25	22	M	swets	15	3	a	15	200.0	NA
32	25	22	M	swets	15	3	doctor.	16	150.0	NA
32	25	22	M	Question	15	3	NA	NA	1132.0	1
33	25	22	M	Filler	132	7	While	1	395.0	NA
33	25	22	M	Filler	132	7	John	2	184.0	NA
33	25	22	M	Filler	132	7	and	3	148.0	NA
33	25	22	M	Filler	132	7	Mary	4	135.0	NA
33	25	22	M	Filler	132	7	kissed	5	149.0	NA
33	25	22	M	Filler	132	7	their	6	133.0	NA
33	25	22	M	Filler	132	7	daughter	7	134.0	NA
33	25	22	M	Filler	132	7	fell	8	100.0	NA
33	25	22	M	Filler	132	7	asleep.	9	133.0	NA
33	25	22	M	Question	132	7	NA	NA	1633.0	1
34	25	22	M	swets	27	3	The	1	362.0	NA
34	25	22	M	swets	27	3	sister	2	181.0	NA
34	25	22	M	swets	27	3	of	3	185.0	NA
34	25	22	M	swets	27	3	the	4	199.0	NA
34	25	22	M	swets	27	3	butcher	5	200.0	NA
34	25	22	M	swets	27	3	who	6	317.0	NA
34	25	22	M	swets	27	3	invited	7	266.0	NA
34	25	22	M	swets	27	3	herself	8	185.0	NA
34	25	22	M	swets	27	3	to	9	249.0	NA
34	25	22	M	swets	27	3	the	10	217.0	NA
34	25	22	M	swets	27	3	party	11	234.0	NA
34	25	22	M	swets	27	3	enjoyed	12	233.0	NA
34	25	22	M	swets	27	3	it	13	234.0	NA
34	25	22	M	swets	27	3	quite	14	333.0	NA
34	25	22	M	swets	27	3	a	15	200.0	NA
34	25	22	M	swets	27	3	bit.	16	299.0	NA
34	25	22	M	Question	27	3	NA	NA	2033.0	1
35	25	22	M	Filler	85	5	The	1	311.0	NA
35	25	22	M	Filler	85	5	college	2	150.0	NA
35	25	22	M	Filler	85	5	students	3	100.0	NA
35	25	22	M	Filler	85	5	were	4	83.0	NA
35	25	22	M	Filler	85	5	upset	5	284.0	NA
35	25	22	M	Filler	85	5	that	6	66.0	NA
35	25	22	M	Filler	85	5	they	7	100.0	NA
35	25	22	M	Filler	85	5	had	8	67.0	NA
35	25	22	M	Filler	85	5	an	9	84.0	NA
35	25	22	M	Filler	85	5	exam	10	67.0	NA
35	25	22	M	Filler	85	5	the	11	83.0	NA
35	25	22	M	Filler	85	5	next	12	100.0	NA
35	25	22	M	Filler	85	5	day.	13	83.0	NA
35	25	22	M	Question	85	5	NA	NA	1134.0	1
36	25	22	M	Filler	65	4	Even	1	396.0	NA
36	25	22	M	Filler	65	4	though	2	116.0	NA
36	25	22	M	Filler	65	4	the	3	67.0	NA
36	25	22	M	Filler	65	4	goalie	4	83.0	NA
36	25	22	M	Filler	65	4	had	5	67.0	NA
36	25	22	M	Filler	65	4	a	6	84.0	NA
36	25	22	M	Filler	65	4	bad	7	483.0	NA
36	25	22	M	Filler	65	4	cold	8	117.0	NA
36	25	22	M	Filler	65	4	the	9	133.0	NA
36	25	22	M	Filler	65	4	team	10	150.0	NA
36	25	22	M	Filler	65	4	was	11	83.0	NA
36	25	22	M	Filler	65	4	preparing	12	84.0	NA
36	25	22	M	Filler	65	4	for	13	133.0	NA
36	25	22	M	Filler	65	4	the	14	133.0	NA
36	25	22	M	Filler	65	4	tournament.	15	168.0	NA
36	25	22	M	Question	65	4	NA	NA	1066.0	1
37	25	22	M	swets	33	3	The	1	262.0	NA
37	25	22	M	swets	33	3	maid	2	83.0	NA
37	25	22	M	swets	33	3	of	3	84.0	NA
37	25	22	M	swets	33	3	the	4	83.0	NA
37	25	22	M	swets	33	3	actor	5	100.0	NA
37	25	22	M	swets	33	3	who	6	100.0	NA
37	25	22	M	swets	33	3	did	7	83.0	NA
37	25	22	M	swets	33	3	not	8	100.0	NA
37	25	22	M	swets	33	3	like	9	83.0	NA
37	25	22	M	swets	33	3	herself	10	100.0	NA
37	25	22	M	swets	33	3	very	11	66.0	NA
37	25	22	M	swets	33	3	much	12	117.0	NA
37	25	22	M	swets	33	3	caught	13	84.0	NA
37	25	22	M	swets	33	3	the	14	183.0	NA
37	25	22	M	swets	33	3	armed	15	101.0	NA
37	25	22	M	swets	33	3	robber.	16	100.0	NA
37	25	22	M	Question	33	3	NA	NA	2532.0	1
38	25	22	M	Filler	137	7	When	1	395.0	NA
38	25	22	M	Filler	137	7	Leslie	2	183.0	NA
38	25	22	M	Filler	137	7	was	3	116.0	NA
38	25	22	M	Filler	137	7	sneezing	4	151.0	NA
38	25	22	M	Filler	137	7	her	5	117.0	NA
38	25	22	M	Filler	137	7	friends	6	150.0	NA
38	25	22	M	Filler	137	7	laughed	7	150.0	NA
38	25	22	M	Filler	137	7	at	8	115.0	NA
38	25	22	M	Filler	137	7	her.	9	102.0	NA
38	25	22	M	Question	137	7	NA	NA	1766.0	1
39	25	22	M	swets	1	1	The	1	132.0	NA
39	25	22	M	swets	1	1	sister	2	117.0	NA
39	25	22	M	swets	1	1	of	3	99.0	NA
39	25	22	M	swets	1	1	the	4	117.0	NA
39	25	22	M	swets	1	1	actress	5	100.0	NA
39	25	22	M	swets	1	1	who	6	118.0	NA
39	25	22	M	swets	1	1	called	7	99.0	NA
39	25	22	M	swets	1	1	attention	8	102.0	NA
39	25	22	M	swets	1	1	to	9	98.0	NA
39	25	22	M	swets	1	1	herself	10	83.0	NA
39	25	22	M	swets	1	1	on	11	85.0	NA
39	25	22	M	swets	1	1	the	12	82.0	NA
39	25	22	M	swets	1	1	balcony	13	85.0	NA
39	25	22	M	swets	1	1	was	14	82.0	NA
39	25	22	M	swets	1	1	under	15	101.0	NA
39	25	22	M	swets	1	1	investigation.	16	282.0	NA
39	25	22	M	Question	1	1	NA	NA	1701.0	0
40	25	22	M	Filler	43	4	The	1	399.0	NA
40	25	22	M	Filler	43	4	movie	2	248.0	NA
40	25	22	M	Filler	43	4	director	3	386.0	NA
40	25	22	M	Filler	43	4	refused	4	232.0	NA
40	25	22	M	Filler	43	4	to	5	267.0	NA
40	25	22	M	Filler	43	4	work	6	199.0	NA
40	25	22	M	Filler	43	4	with	7	268.0	NA
40	25	22	M	Filler	43	4	the	8	216.0	NA
40	25	22	M	Filler	43	4	producer	9	300.0	NA
40	25	22	M	Filler	43	4	again	10	151.0	NA
40	25	22	M	Filler	43	4	after	11	283.0	NA
40	25	22	M	Filler	43	4	winning	12	217.0	NA
40	25	22	M	Filler	43	4	the	13	150.0	NA
40	25	22	M	Filler	43	4	grand	14	166.0	NA
40	25	22	M	Filler	43	4	prize.	15	150.0	NA
40	25	22	M	Question	43	4	NA	NA	5100.0	1
41	25	22	M	Filler	140	7	The	1	513.0	NA
41	25	22	M	Filler	140	7	investigators	2	166.0	NA
41	25	22	M	Filler	140	7	asked	3	234.0	NA
41	25	22	M	Filler	140	7	which	4	200.0	NA
41	25	22	M	Filler	140	7	mansion	5	151.0	NA
41	25	22	M	Filler	140	7	the	6	700.0	NA
41	25	22	M	Filler	140	7	owner	7	333.0	NA
41	25	22	M	Filler	140	7	sold	8	300.0	NA
41	25	22	M	Filler	140	7	and	9	316.0	NA
41	25	22	M	Filler	140	7	didn't	10	334.0	NA
41	25	22	M	Filler	140	7	repair	11	250.0	NA
41	25	22	M	Filler	140	7	ten	12	349.0	NA
41	25	22	M	Filler	140	7	years	13	334.0	NA
41	25	22	M	Filler	140	7	ago.	14	267.0	NA
41	25	22	M	Question	140	7	NA	NA	5817.0	0
42	25	22	M	swets	16	1	The	1	345.0	NA
42	25	22	M	swets	16	1	uncle	2	151.0	NA
42	25	22	M	swets	16	1	of	3	83.0	NA
42	25	22	M	swets	16	1	the	4	82.0	NA
42	25	22	M	swets	16	1	general	5	68.0	NA
42	25	22	M	swets	16	1	who	6	84.0	NA
42	25	22	M	swets	16	1	sacrificed	7	66.0	NA
42	25	22	M	swets	16	1	himself	8	100.0	NA
42	25	22	M	swets	16	1	for	9	83.0	NA
42	25	22	M	swets	16	1	the	10	84.0	NA
42	25	22	M	swets	16	1	cause	11	100.0	NA
42	25	22	M	swets	16	1	was	12	83.0	NA
42	25	22	M	swets	16	1	the	13	100.0	NA
42	25	22	M	swets	16	1	subject	14	67.0	NA
42	25	22	M	swets	16	1	of	15	100.0	NA
42	25	22	M	swets	16	1	the	16	99.0	NA
42	25	22	M	swets	16	1	biography.	17	100.0	NA
42	25	22	M	Question	16	1	NA	NA	1534.0	0
43	25	22	M	Filler	126	6	The	1	346.0	NA
43	25	22	M	Filler	126	6	boxes	2	82.0	NA
43	25	22	M	Filler	126	6	and	3	66.0	NA
43	25	22	M	Filler	126	6	hangers	4	84.0	NA
43	25	22	M	Filler	126	6	had	5	68.0	NA
43	25	22	M	Filler	126	6	been	6	83.0	NA
43	25	22	M	Filler	126	6	stuffed	7	100.0	NA
43	25	22	M	Filler	126	6	in	8	83.0	NA
43	25	22	M	Filler	126	6	the	9	84.0	NA
43	25	22	M	Filler	126	6	closet.	10	82.0	NA
43	25	22	M	Question	126	6	NA	NA	3135.0	1
44	25	22	M	swets	24	3	The	1	594.0	NA
44	25	22	M	swets	24	3	daughter	2	167.0	NA
44	25	22	M	swets	24	3	of	3	99.0	NA
44	25	22	M	swets	24	3	the	4	134.0	NA
44	25	22	M	swets	24	3	chaplain	5	100.0	NA
44	25	22	M	swets	24	3	who	6	366.0	NA
44	25	22	M	swets	24	3	drew	7	133.0	NA
44	25	22	M	swets	24	3	attention	8	134.0	NA
44	25	22	M	swets	24	3	to	9	101.0	NA
44	25	22	M	swets	24	3	herself	10	116.0	NA
44	25	22	M	swets	24	3	all	11	116.0	NA
44	25	22	M	swets	24	3	the	12	118.0	NA
44	25	22	M	swets	24	3	time	13	83.0	NA
44	25	22	M	swets	24	3	hated	14	100.0	NA
44	25	22	M	swets	24	3	small	15	116.0	NA
44	25	22	M	swets	24	3	children.	16	83.0	NA
44	25	22	M	Question	24	3	NA	NA	3433.0	1
45	25	22	M	Filler	75	5	The	1	395.0	NA
45	25	22	M	Filler	75	5	musician	2	132.0	NA
45	25	22	M	Filler	75	5	shocked	3	50.0	NA
45	25	22	M	Filler	75	5	the	4	68.0	NA
45	25	22	M	Filler	75	5	audience	5	99.0	NA
45	25	22	M	Filler	75	5	because	6	35.0	NA
45	25	22	M	Filler	75	5	they	7	82.0	NA
45	25	22	M	Filler	75	5	did	8	118.0	NA
45	25	22	M	Filler	75	5	not	9	66.0	NA
45	25	22	M	Filler	75	5	realize	10	100.0	NA
45	25	22	M	Filler	75	5	what	11	66.0	NA
45	25	22	M	Filler	75	5	these	12	101.0	NA
45	25	22	M	Filler	75	5	shows	13	167.0	NA
45	25	22	M	Filler	75	5	were	14	100.0	NA
45	25	22	M	Filler	75	5	like.	15	84.0	NA
45	25	22	M	Question	75	5	NA	NA	1683.0	1
46	25	22	M	Filler	82	5	The	1	328.0	NA
46	25	22	M	Filler	82	5	patient's	2	101.0	NA
46	25	22	M	Filler	82	5	seizures	3	66.0	NA
46	25	22	M	Filler	82	5	appeared	4	83.0	NA
46	25	22	M	Filler	82	5	to	5	116.0	NA
46	25	22	M	Filler	82	5	have	6	66.0	NA
46	25	22	M	Filler	82	5	been	7	100.0	NA
46	25	22	M	Filler	82	5	eliminated	8	68.0	NA
46	25	22	M	Filler	82	5	by	9	83.0	NA
46	25	22	M	Filler	82	5	the	10	67.0	NA
46	25	22	M	Filler	82	5	surgery.	11	100.0	NA
46	25	22	M	Question	82	5	NA	NA	1267.0	1
47	25	22	M	swets	6	3	The	1	261.0	NA
47	25	22	M	swets	6	3	hostess	2	83.0	NA
47	25	22	M	swets	6	3	of	3	84.0	NA
47	25	22	M	swets	6	3	the	4	83.0	NA
47	25	22	M	swets	6	3	mayor	5	83.0	NA
47	25	22	M	swets	6	3	who	6	101.0	NA
47	25	22	M	swets	6	3	complimented	7	115.0	NA
47	25	22	M	swets	6	3	herself	8	167.0	NA
47	25	22	M	swets	6	3	constantly	9	268.0	NA
47	25	22	M	swets	6	3	was	10	149.0	NA
47	25	22	M	swets	6	3	bothered	11	149.0	NA
47	25	22	M	swets	6	3	by	12	184.0	NA
47	25	22	M	swets	6	3	the	13	151.0	NA
47	25	22	M	swets	6	3	reporter.	14	316.0	NA
47	25	22	M	Question	6	3	NA	NA	1901.0	1
48	25	22	M	Filler	53	4	The	1	362.0	NA
48	25	22	M	Filler	53	4	clay	2	83.0	NA
48	25	22	M	Filler	53	4	pot	3	83.0	NA
48	25	22	M	Filler	53	4	was	4	83.0	NA
48	25	22	M	Filler	53	4	full	5	251.0	NA
48	25	22	M	Filler	53	4	of	6	66.0	NA
48	25	22	M	Filler	53	4	gold	7	66.0	NA
48	25	22	M	Filler	53	4	coins	8	134.0	NA
48	25	22	M	Filler	53	4	and	9	317.0	NA
48	25	22	M	Filler	53	4	the	10	116.0	NA
48	25	22	M	Filler	53	4	thief	11	250.0	NA
48	25	22	M	Filler	53	4	knew	12	217.0	NA
48	25	22	M	Filler	53	4	he	13	266.0	NA
48	25	22	M	Filler	53	4	had	14	85.0	NA
48	25	22	M	Filler	53	4	finally	15	116.0	NA
48	25	22	M	Filler	53	4	hit	16	83.0	NA
48	25	22	M	Filler	53	4	the	17	134.0	NA
48	25	22	M	Filler	53	4	jackpot.	18	167.0	NA
48	25	22	M	Question	53	4	NA	NA	1932.0	1
49	25	22	M	Filler	141	7	The	1	583.0	NA
49	25	22	M	Filler	141	7	nurse	2	99.0	NA
49	25	22	M	Filler	141	7	and	3	66.0	NA
49	25	22	M	Filler	141	7	custodian	4	100.0	NA
49	25	22	M	Filler	141	7	chatted	5	67.0	NA
49	25	22	M	Filler	141	7	during	6	115.0	NA
49	25	22	M	Filler	141	7	their	7	68.0	NA
49	25	22	M	Filler	141	7	break.	8	133.0	NA
49	25	22	M	Question	141	7	NA	NA	1166.0	1
50	25	22	M	swets	30	3	The	1	381.0	NA
50	25	22	M	swets	30	3	bodyguard	2	101.0	NA
50	25	22	M	swets	30	3	of	3	82.0	NA
50	25	22	M	swets	30	3	the	4	133.0	NA
50	25	22	M	swets	30	3	baroness	5	133.0	NA
50	25	22	M	swets	30	3	who	6	67.0	NA
50	25	22	M	swets	30	3	prepared	7	83.0	NA
50	25	22	M	swets	30	3	himself	8	83.0	NA
50	25	22	M	swets	30	3	very	9	100.0	NA
50	25	22	M	swets	30	3	thoroughly	10	68.0	NA
50	25	22	M	swets	30	3	came	11	100.0	NA
50	25	22	M	swets	30	3	from	12	83.0	NA
50	25	22	M	swets	30	3	the	13	84.0	NA
50	25	22	M	swets	30	3	south.	14	99.0	NA
50	25	22	M	Question	30	3	NA	NA	1334.0	0
51	25	22	M	Filler	93	5	The	1	329.0	NA
51	25	22	M	Filler	93	5	new	2	85.0	NA
51	25	22	M	Filler	93	5	book	3	100.0	NA
51	25	22	M	Filler	93	5	replaced	4	333.0	NA
51	25	22	M	Filler	93	5	the	5	83.0	NA
51	25	22	M	Filler	93	5	work	6	100.0	NA
51	25	22	M	Filler	93	5	of	7	285.0	NA
51	25	22	M	Filler	93	5	the	8	82.0	NA
51	25	22	M	Filler	93	5	leaders	9	66.0	NA
51	25	22	M	Filler	93	5	in	10	268.0	NA
51	25	22	M	Filler	93	5	the	11	67.0	NA
51	25	22	M	Filler	93	5	field	12	233.0	NA
51	25	22	M	Filler	93	5	of	13	83.0	NA
51	25	22	M	Filler	93	5	physical	14	266.0	NA
51	25	22	M	Filler	93	5	chemistry.	15	350.0	NA
51	25	22	M	Question	93	5	NA	NA	1000.0	1
52	25	22	M	Filler	128	7	While	1	596.0	NA
52	25	22	M	Filler	128	7	the	2	138.0	NA
52	25	22	M	Filler	128	7	man	3	28.0	NA
52	25	22	M	Filler	128	7	was	4	117.0	NA
52	25	22	M	Filler	128	7	walking	5	51.0	NA
52	25	22	M	Filler	128	7	the	6	100.0	NA
52	25	22	M	Filler	128	7	poodle	7	116.0	NA
52	25	22	M	Filler	128	7	barked	8	99.0	NA
52	25	22	M	Filler	128	7	loudly.	9	85.0	NA
52	25	22	M	Question	128	7	NA	NA	1400.0	1
53	25	22	M	Filler	116	6	As	1	529.0	NA
53	25	22	M	Filler	116	6	the	2	67.0	NA
53	25	22	M	Filler	116	6	survivors	3	67.0	NA
53	25	22	M	Filler	116	6	were	4	166.0	NA
53	25	22	M	Filler	116	6	embracing	5	100.0	NA
53	25	22	M	Filler	116	6	the	6	117.0	NA
53	25	22	M	Filler	116	6	firefighter	7	99.0	NA
53	25	22	M	Filler	116	6	coughed	8	101.0	NA
53	25	22	M	Filler	116	6	violently.	9	350.0	NA
53	25	22	M	Question	116	6	NA	NA	2801.0	1
54	25	22	M	Filler	106	5	On	1	778.0	NA
54	25	22	M	Filler	106	5	the	2	68.0	NA
54	25	22	M	Filler	106	5	last	3	99.0	NA
54	25	22	M	Filler	106	5	night	4	82.0	NA
54	25	22	M	Filler	106	5	of	5	84.0	NA
54	25	22	M	Filler	106	5	summer	6	67.0	NA
54	25	22	M	Filler	106	5	camp	7	84.0	NA
54	25	22	M	Filler	106	5	the	8	82.0	NA
54	25	22	M	Filler	106	5	counselors	9	67.0	NA
54	25	22	M	Filler	106	5	let	10	84.0	NA
54	25	22	M	Filler	106	5	the	11	82.0	NA
54	25	22	M	Filler	106	5	children	12	67.0	NA
54	25	22	M	Filler	106	5	stay	13	99.0	NA
54	25	22	M	Filler	106	5	up	14	68.0	NA
54	25	22	M	Filler	106	5	until	15	100.0	NA
54	25	22	M	Filler	106	5	midnight.	16	83.0	NA
54	25	22	M	Question	106	5	NA	NA	1032.0	1
55	25	22	M	Filler	51	4	The	1	212.0	NA
55	25	22	M	Filler	51	4	students	2	99.0	NA
55	25	22	M	Filler	51	4	were	3	51.0	NA
55	25	22	M	Filler	51	4	in	4	83.0	NA
55	25	22	M	Filler	51	4	a	5	68.0	NA
55	25	22	M	Filler	51	4	frenzy	6	99.0	NA
55	25	22	M	Filler	51	4	because	7	99.0	NA
55	25	22	M	Filler	51	4	they	8	50.0	NA
55	25	22	M	Filler	51	4	wanted	9	84.0	NA
55	25	22	M	Filler	51	4	tickets	10	99.0	NA
55	25	22	M	Filler	51	4	for	11	68.0	NA
55	25	22	M	Filler	51	4	the	12	99.0	NA
55	25	22	M	Filler	51	4	game	13	101.0	NA
55	25	22	M	Filler	51	4	tonight.	14	83.0	NA
55	25	22	M	Question	51	4	NA	NA	1200.0	1
56	25	22	M	swets	25	1	The	1	378.0	NA
56	25	22	M	swets	25	1	grandmother	2	85.0	NA
56	25	22	M	swets	25	1	of	3	66.0	NA
56	25	22	M	swets	25	1	the	4	83.0	NA
56	25	22	M	swets	25	1	stewardess	5	67.0	NA
56	25	22	M	swets	25	1	who	6	50.0	NA
56	25	22	M	swets	25	1	treated	7	134.0	NA
56	25	22	M	swets	25	1	herself	8	100.0	NA
56	25	22	M	swets	25	1	to	9	100.0	NA
56	25	22	M	swets	25	1	an	10	82.0	NA
56	25	22	M	swets	25	1	ice-cream	11	101.0	NA
56	25	22	M	swets	25	1	cone	12	67.0	NA
56	25	22	M	swets	25	1	was	13	133.0	NA
56	25	22	M	swets	25	1	waiting	14	116.0	NA
56	25	22	M	swets	25	1	at	15	85.0	NA
56	25	22	M	swets	25	1	home.	16	98.0	NA
56	25	22	M	Question	25	1	NA	NA	3233.0	1
57	25	22	M	Filler	84	5	While	1	861.0	NA
57	25	22	M	Filler	84	5	talking	2	100.0	NA
57	25	22	M	Filler	84	5	to	3	83.0	NA
57	25	22	M	Filler	84	5	his	4	84.0	NA
57	25	22	M	Filler	84	5	sister	5	82.0	NA
57	25	22	M	Filler	84	5	the	6	68.0	NA
57	25	22	M	Filler	84	5	bishop	7	100.0	NA
57	25	22	M	Filler	84	5	with	8	65.0	NA
57	25	22	M	Filler	84	5	the	9	101.0	NA
57	25	22	M	Filler	84	5	funny	10	82.0	NA
57	25	22	M	Filler	84	5	eyebrows	11	468.0	NA
57	25	22	M	Filler	84	5	advocated	12	133.0	NA
57	25	22	M	Filler	84	5	strange	13	301.0	NA
57	25	22	M	Filler	84	5	beliefs.	14	99.0	NA
57	25	22	M	Question	84	5	NA	NA	2085.0	1
58	25	22	M	swets	20	2	The	1	329.0	NA
58	25	22	M	swets	20	2	sister	2	82.0	NA
58	25	22	M	swets	20	2	of	3	84.0	NA
58	25	22	M	swets	20	2	the	4	67.0	NA
58	25	22	M	swets	20	2	count	5	100.0	NA
58	25	22	M	swets	20	2	who	6	267.0	NA
58	25	22	M	swets	20	2	crippled	7	83.0	NA
58	25	22	M	swets	20	2	himself	8	84.0	NA
58	25	22	M	swets	20	2	by	9	99.0	NA
58	25	22	M	swets	20	2	falling	10	100.0	NA
58	25	22	M	swets	20	2	off	11	334.0	NA
58	25	22	M	swets	20	2	a	12	82.0	NA
58	25	22	M	swets	20	2	horse	13	67.0	NA
58	25	22	M	swets	20	2	took	14	282.0	NA
58	25	22	M	swets	20	2	a	15	51.0	NA
58	25	22	M	swets	20	2	long	16	367.0	NA
58	25	22	M	swets	20	2	time	17	367.0	NA
58	25	22	M	swets	20	2	to	18	251.0	NA
58	25	22	M	swets	20	2	get	19	298.0	NA
58	25	22	M	swets	20	2	over	20	185.0	NA
58	25	22	M	swets	20	2	it.	21	99.0	NA
58	25	22	M	Question	20	2	NA	NA	1066.0	0
59	25	22	M	Filler	44	4	The	1	361.0	NA
59	25	22	M	Filler	44	4	solicitor	2	66.0	NA
59	25	22	M	Filler	44	4	wearing	3	84.0	NA
59	25	22	M	Filler	44	4	the	4	83.0	NA
59	25	22	M	Filler	44	4	new	5	133.0	NA
59	25	22	M	Filler	44	4	tuxedo	6	83.0	NA
59	25	22	M	Filler	44	4	bothered	7	84.0	NA
59	25	22	M	Filler	44	4	a	8	117.0	NA
59	25	22	M	Filler	44	4	man	9	366.0	NA
59	25	22	M	Filler	44	4	from	10	167.0	NA
59	25	22	M	Filler	44	4	New	11	234.0	NA
59	25	22	M	Filler	44	4	York.	12	200.0	NA
59	25	22	M	Question	44	4	NA	NA	3499.0	1
60	25	22	M	Filler	72	4	The	1	378.0	NA
60	25	22	M	Filler	72	4	secretaries	2	150.0	NA
60	25	22	M	Filler	72	4	couldn't	3	67.0	NA
60	25	22	M	Filler	72	4	break	4	348.0	NA
60	25	22	M	Filler	72	4	away	5	101.0	NA
60	25	22	M	Filler	72	4	from	6	116.0	NA
60	25	22	M	Filler	72	4	their	7	117.0	NA
60	25	22	M	Filler	72	4	habit	8	101.0	NA
60	25	22	M	Filler	72	4	of	9	100.0	NA
60	25	22	M	Filler	72	4	coffee	10	166.0	NA
60	25	22	M	Filler	72	4	and	11	184.0	NA
60	25	22	M	Filler	72	4	cigarettes	12	150.0	NA
60	25	22	M	Filler	72	4	during	13	567.0	NA
60	25	22	M	Filler	72	4	their	14	133.0	NA
60	25	22	M	Filler	72	4	breaks.	15	200.0	NA
60	25	22	M	Question	72	4	NA	NA	1299.0	1
61	25	22	M	Filler	67	4	The	1	249.0	NA
61	25	22	M	Filler	67	4	restaurant	2	66.0	NA
61	25	22	M	Filler	67	4	was	3	101.0	NA
61	25	22	M	Filler	67	4	famous	4	66.0	NA
61	25	22	M	Filler	67	4	for	5	282.0	NA
61	25	22	M	Filler	67	4	its	6	84.0	NA
61	25	22	M	Filler	67	4	French	7	68.0	NA
61	25	22	M	Filler	67	4	pastries	8	116.0	NA
61	25	22	M	Filler	67	4	and	9	250.0	NA
61	25	22	M	Filler	67	4	fine	10	84.0	NA
61	25	22	M	Filler	67	4	wines.	11	83.0	NA
61	25	22	M	Question	67	4	NA	NA	1066.0	1
62	25	22	M	Filler	107	5	The	1	266.0	NA
62	25	22	M	Filler	107	5	citizens	2	66.0	NA
62	25	22	M	Filler	107	5	were	3	66.0	NA
62	25	22	M	Filler	107	5	dissatisfied	4	67.0	NA
62	25	22	M	Filler	107	5	with	5	483.0	NA
62	25	22	M	Filler	107	5	the	6	101.0	NA
62	25	22	M	Filler	107	5	mayor	7	116.0	NA
62	25	22	M	Filler	107	5	of	8	117.0	NA
62	25	22	M	Filler	107	5	town	9	166.0	NA
62	25	22	M	Filler	107	5	because	10	100.0	NA
62	25	22	M	Filler	107	5	he	11	366.0	NA
62	25	22	M	Filler	107	5	had	12	100.0	NA
62	25	22	M	Filler	107	5	little	13	269.0	NA
62	25	22	M	Filler	107	5	experience.	14	198.0	NA
62	25	22	M	Question	107	5	NA	NA	1033.0	1
63	25	22	M	swets	28	1	The	1	331.0	NA
63	25	22	M	swets	28	1	sister	2	115.0	NA
63	25	22	M	swets	28	1	of	3	84.0	NA
63	25	22	M	swets	28	1	the	4	133.0	NA
63	25	22	M	swets	28	1	baroness	5	133.0	NA
63	25	22	M	swets	28	1	who	6	100.0	NA
63	25	22	M	swets	28	1	admired	7	368.0	NA
63	25	22	M	swets	28	1	herself	8	199.0	NA
63	25	22	M	swets	28	1	an	9	184.0	NA
63	25	22	M	swets	28	1	inordinate	10	367.0	NA
63	25	22	M	swets	28	1	amount	11	200.0	NA
63	25	22	M	swets	28	1	enjoyed	12	165.0	NA
63	25	22	M	swets	28	1	all	13	218.0	NA
63	25	22	M	swets	28	1	the	14	250.0	NA
63	25	22	M	swets	28	1	attention.	15	116.0	NA
63	25	22	M	Question	28	1	NA	NA	2067.0	0
64	25	22	M	Filler	115	6	As	1	495.0	NA
64	25	22	M	Filler	115	6	Elaine	2	67.0	NA
64	25	22	M	Filler	115	6	and	3	83.0	NA
64	25	22	M	Filler	115	6	Robert	4	68.0	NA
64	25	22	M	Filler	115	6	fought	5	100.0	NA
64	25	22	M	Filler	115	6	the	6	100.0	NA
64	25	22	M	Filler	115	6	mosquitoes	7	99.0	NA
64	25	22	M	Filler	115	6	whined	8	84.0	NA
64	25	22	M	Filler	115	6	annoyingly.	9	99.0	NA
64	25	22	M	Question	115	6	NA	NA	1000.0	1
65	25	22	M	Filler	110	6	While	1	428.0	NA
65	25	22	M	Filler	110	6	the	2	165.0	NA
65	25	22	M	Filler	110	6	lawyer	3	135.0	NA
65	25	22	M	Filler	110	6	was	4	301.0	NA
65	25	22	M	Filler	110	6	reading	5	117.0	NA
65	25	22	M	Filler	110	6	the	6	216.0	NA
65	25	22	M	Filler	110	6	will	7	199.0	NA
65	25	22	M	Filler	110	6	the	8	185.0	NA
65	25	22	M	Filler	110	6	contract	9	217.0	NA
65	25	22	M	Filler	110	6	remained	10	233.0	NA
65	25	22	M	Filler	110	6	on	11	233.0	NA
65	25	22	M	Filler	110	6	the	12	233.0	NA
65	25	22	M	Filler	110	6	desk.	13	183.0	NA
65	25	22	M	Question	110	6	NA	NA	1233.0	1
66	25	22	M	Filler	134	7	As	1	346.0	NA
66	25	22	M	Filler	134	7	Shawnie	2	100.0	NA
66	25	22	M	Filler	134	7	and	3	83.0	NA
66	25	22	M	Filler	134	7	Nick	4	66.0	NA
66	25	22	M	Filler	134	7	were	5	84.0	NA
66	25	22	M	Filler	134	7	embracing	6	34.0	NA
66	25	22	M	Filler	134	7	the	7	284.0	NA
66	25	22	M	Filler	134	7	doctor	8	65.0	NA
66	25	22	M	Filler	134	7	the	9	66.0	NA
66	25	22	M	Filler	134	7	visitor	10	267.0	NA
66	25	22	M	Filler	134	7	entered	11	100.0	NA
66	25	22	M	Filler	134	7	the	12	350.0	NA
66	25	22	M	Filler	134	7	room.	13	84.0	NA
66	25	22	M	Question	134	7	NA	NA	2000.0	1
67	25	22	M	Filler	87	5	The	1	478.0	NA
67	25	22	M	Filler	87	5	car	2	133.0	NA
67	25	22	M	Filler	87	5	chased	3	117.0	NA
67	25	22	M	Filler	87	5	the	4	133.0	NA
67	25	22	M	Filler	87	5	robber	5	217.0	NA
67	25	22	M	Filler	87	5	of	6	133.0	NA
67	25	22	M	Filler	87	5	the	7	134.0	NA
67	25	22	M	Filler	87	5	bank	8	132.0	NA
67	25	22	M	Filler	87	5	into	9	134.0	NA
67	25	22	M	Filler	87	5	a	10	118.0	NA
67	25	22	M	Filler	87	5	narrow	11	149.0	NA
67	25	22	M	Filler	87	5	alley.	12	117.0	NA
67	25	22	M	Question	87	5	NA	NA	1533.0	1
68	25	22	M	Filler	88	5	The	1	428.0	NA
68	25	22	M	Filler	88	5	woman's	2	132.0	NA
68	25	22	M	Filler	88	5	posture	3	134.0	NA
68	25	22	M	Filler	88	5	began	4	334.0	NA
68	25	22	M	Filler	88	5	to	5	100.0	NA
68	25	22	M	Filler	88	5	go	6	250.0	NA
68	25	22	M	Filler	88	5	bad	7	167.0	NA
68	25	22	M	Filler	88	5	because	8	200.0	NA
68	25	22	M	Filler	88	5	of	9	184.0	NA
68	25	22	M	Filler	88	5	her	10	149.0	NA
68	25	22	M	Filler	88	5	constant	11	134.0	NA
68	25	22	M	Filler	88	5	slumping.	12	300.0	NA
68	25	22	M	Question	88	5	NA	NA	1815.0	1
69	25	22	M	swets	23	2	The	1	461.0	NA
69	25	22	M	swets	23	2	father	2	99.0	NA
69	25	22	M	swets	23	2	of	3	201.0	NA
69	25	22	M	swets	23	2	the	4	251.0	NA
69	25	22	M	swets	23	2	ballerina	5	233.0	NA
69	25	22	M	swets	23	2	who	6	433.0	NA
69	25	22	M	swets	23	2	found	7	268.0	NA
69	25	22	M	swets	23	2	herself	8	215.0	NA
69	25	22	M	swets	23	2	in	9	250.0	NA
69	25	22	M	swets	23	2	a	10	201.0	NA
69	25	22	M	swets	23	2	lot	11	200.0	NA
69	25	22	M	swets	23	2	of	12	150.0	NA
69	25	22	M	swets	23	2	trouble	13	200.0	NA
69	25	22	M	swets	23	2	phoned	14	199.0	NA
69	25	22	M	swets	23	2	the	15	184.0	NA
69	25	22	M	swets	23	2	police.	16	182.0	NA
69	25	22	M	Question	23	2	NA	NA	3600.0	1
70	25	22	M	Filler	83	5	The	1	1029.0	NA
70	25	22	M	Filler	83	5	passengers	2	2132.0	NA
70	25	22	M	Filler	83	5	screamed	3	834.0	NA
70	25	22	M	Filler	83	5	as	4	300.0	NA
70	25	22	M	Filler	83	5	the	5	251.0	NA
70	25	22	M	Filler	83	5	plane	6	249.0	NA
70	25	22	M	Filler	83	5	dipped	7	217.0	NA
70	25	22	M	Filler	83	5	and	8	133.0	NA
70	25	22	M	Filler	83	5	the	9	167.0	NA
70	25	22	M	Filler	83	5	pilots	10	149.0	NA
70	25	22	M	Filler	83	5	said	11	151.0	NA
70	25	22	M	Filler	83	5	their	12	234.0	NA
70	25	22	M	Filler	83	5	prayers	13	150.0	NA
70	25	22	M	Filler	83	5	quietly.	14	233.0	NA
70	25	22	M	Question	83	5	NA	NA	1399.0	1
71	25	22	M	Filler	39	4	The	1	395.0	NA
71	25	22	M	Filler	39	4	overweight	2	149.0	NA
71	25	22	M	Filler	39	4	aunt	3	100.0	NA
71	25	22	M	Filler	39	4	decided	4	300.0	NA
71	25	22	M	Filler	39	4	to	5	150.0	NA
71	25	22	M	Filler	39	4	make	6	118.0	NA
71	25	22	M	Filler	39	4	cookies	7	132.0	NA
71	25	22	M	Filler	39	4	and	8	117.0	NA
71	25	22	M	Filler	39	4	cupcakes	9	133.0	NA
71	25	22	M	Filler	39	4	for	10	84.0	NA
71	25	22	M	Filler	39	4	the	11	350.0	NA
71	25	22	M	Filler	39	4	dinner	12	101.0	NA
71	25	22	M	Filler	39	4	party.	13	132.0	NA
71	25	22	M	Question	39	4	NA	NA	1200.0	1
72	25	22	M	Filler	50	4	The	1	382.0	NA
72	25	22	M	Filler	50	4	new	2	82.0	NA
72	25	22	M	Filler	50	4	language	3	68.0	NA
72	25	22	M	Filler	50	4	requirement	4	67.0	NA
72	25	22	M	Filler	50	4	made	5	83.0	NA
72	25	22	M	Filler	50	4	all	6	100.0	NA
72	25	22	M	Filler	50	4	the	7	67.0	NA
72	25	22	M	Filler	50	4	students	8	100.0	NA
72	25	22	M	Filler	50	4	say	9	66.0	NA
72	25	22	M	Filler	50	4	bad	10	100.0	NA
72	25	22	M	Filler	50	4	things	11	50.0	NA
72	25	22	M	Filler	50	4	about	12	67.0	NA
72	25	22	M	Filler	50	4	the	13	84.0	NA
72	25	22	M	Filler	50	4	dean	14	66.0	NA
72	25	22	M	Filler	50	4	of	15	67.0	NA
72	25	22	M	Filler	50	4	the	16	84.0	NA
72	25	22	M	Filler	50	4	college.	17	99.0	NA
72	25	22	M	Question	50	4	NA	NA	1333.0	1
73	25	22	M	Filler	59	4	The	1	416.0	NA
73	25	22	M	Filler	59	4	conductor	2	100.0	NA
73	25	22	M	Filler	59	4	of	3	66.0	NA
73	25	22	M	Filler	59	4	the	4	83.0	NA
73	25	22	M	Filler	59	4	orchestra	5	101.0	NA
73	25	22	M	Filler	59	4	with	6	82.0	NA
73	25	22	M	Filler	59	4	the	7	84.0	NA
73	25	22	M	Filler	59	4	bald	8	333.0	NA
73	25	22	M	Filler	59	4	head	9	67.0	NA
73	25	22	M	Filler	59	4	plays	10	116.0	NA
73	25	22	M	Filler	59	4	excellently.	11	66.0	NA
73	25	22	M	Question	59	4	NA	NA	1134.0	1
74	25	22	M	Filler	112	6	As	1	363.0	NA
74	25	22	M	Filler	112	6	the	2	85.0	NA
74	25	22	M	Filler	112	6	dog	3	64.0	NA
74	25	22	M	Filler	112	6	was	4	68.0	NA
74	25	22	M	Filler	112	6	calming	5	68.0	NA
74	25	22	M	Filler	112	6	down	6	82.0	NA
74	25	22	M	Filler	112	6	the	7	83.0	NA
74	25	22	M	Filler	112	6	puppy	8	68.0	NA
74	25	22	M	Filler	112	6	slept	9	83.0	NA
74	25	22	M	Filler	112	6	in	10	83.0	NA
74	25	22	M	Filler	112	6	the	11	66.0	NA
74	25	22	M	Filler	112	6	cage.	12	100.0	NA
74	25	22	M	Question	112	6	NA	NA	1167.0	1
75	25	22	M	Filler	113	6	While	1	362.0	NA
75	25	22	M	Filler	113	6	Noah	2	67.0	NA
75	25	22	M	Filler	113	6	was	3	83.0	NA
75	25	22	M	Filler	113	6	waking	4	83.0	NA
75	25	22	M	Filler	113	6	up	5	67.0	NA
75	25	22	M	Filler	113	6	the	6	84.0	NA
75	25	22	M	Filler	113	6	man	7	67.0	NA
75	25	22	M	Filler	113	6	the	8	83.0	NA
75	25	22	M	Filler	113	6	neighbor	9	99.0	NA
75	25	22	M	Filler	113	6	coughed	10	101.0	NA
75	25	22	M	Filler	113	6	loudly.	11	66.0	NA
75	25	22	M	Question	113	6	NA	NA	933.0	1
76	25	22	M	Filler	60	4	The	1	329.0	NA
76	25	22	M	Filler	60	4	newlyweds	2	83.0	NA
76	25	22	M	Filler	60	4	were	3	50.0	NA
76	25	22	M	Filler	60	4	nervous	4	100.0	NA
76	25	22	M	Filler	60	4	about	5	68.0	NA
76	25	22	M	Filler	60	4	their	6	282.0	NA
76	25	22	M	Filler	60	4	new	7	83.0	NA
76	25	22	M	Filler	60	4	life	8	117.0	NA
76	25	22	M	Filler	60	4	together.	9	116.0	NA
76	25	22	M	Question	60	4	NA	NA	901.0	1
77	25	22	M	swets	14	2	The	1	278.0	NA
77	25	22	M	swets	14	2	father	2	83.0	NA
77	25	22	M	swets	14	2	of	3	67.0	NA
77	25	22	M	swets	14	2	the	4	66.0	NA
77	25	22	M	swets	14	2	nurse	5	68.0	NA
77	25	22	M	swets	14	2	who	6	83.0	NA
77	25	22	M	swets	14	2	injured	7	67.0	NA
77	25	22	M	swets	14	2	herself	8	99.0	NA
77	25	22	M	swets	14	2	last	9	84.0	NA
77	25	22	M	swets	14	2	summer	10	99.0	NA
77	25	22	M	swets	14	2	had	11	117.0	NA
77	25	22	M	swets	14	2	lived	12	66.0	NA
77	25	22	M	swets	14	2	in	13	85.0	NA
77	25	22	M	swets	14	2	Wales.	14	100.0	NA
77	25	22	M	Question	14	2	NA	NA	2166.0	0
78	25	22	M	Filler	89	5	Jim	1	493.0	NA
78	25	22	M	Filler	89	5	watered	2	68.0	NA
78	25	22	M	Filler	89	5	the	3	67.0	NA
78	25	22	M	Filler	89	5	tropical	4	67.0	NA
78	25	22	M	Filler	89	5	plants	5	83.0	NA
78	25	22	M	Filler	89	5	of	6	67.0	NA
78	25	22	M	Filler	89	5	his	7	83.0	NA
78	25	22	M	Filler	89	5	neighbor	8	99.0	NA
78	25	22	M	Filler	89	5	because	9	67.0	NA
78	25	22	M	Filler	89	5	she	10	84.0	NA
78	25	22	M	Filler	89	5	had	11	167.0	NA
78	25	22	M	Filler	89	5	gone	12	83.0	NA
78	25	22	M	Filler	89	5	out	13	67.0	NA
78	25	22	M	Filler	89	5	of	14	132.0	NA
78	25	22	M	Filler	89	5	town	15	101.0	NA
78	25	22	M	Filler	89	5	for	16	83.0	NA
78	25	22	M	Filler	89	5	a	17	334.0	NA
78	25	22	M	Filler	89	5	few	18	100.0	NA
78	25	22	M	Filler	89	5	days.	19	116.0	NA
78	25	22	M	Question	89	5	NA	NA	1233.0	1
79	25	22	M	swets	9	3	The	1	346.0	NA
79	25	22	M	swets	9	3	father	2	67.0	NA
79	25	22	M	swets	9	3	of	3	83.0	NA
79	25	22	M	swets	9	3	the	4	84.0	NA
79	25	22	M	swets	9	3	schoolgirl	5	81.0	NA
79	25	22	M	swets	9	3	who	6	67.0	NA
79	25	22	M	swets	9	3	burned	7	68.0	NA
79	25	22	M	swets	9	3	himself	8	132.0	NA
79	25	22	M	swets	9	3	the	9	68.0	NA
79	25	22	M	swets	9	3	other	10	117.0	NA
79	25	22	M	swets	9	3	day	11	81.0	NA
79	25	22	M	swets	9	3	was	12	85.0	NA
79	25	22	M	swets	9	3	usually	13	100.0	NA
79	25	22	M	swets	9	3	very	14	83.0	NA
79	25	22	M	swets	9	3	careful.	15	101.0	NA
79	25	22	M	Question	9	3	NA	NA	1131.0	1
80	25	22	M	Filler	103	5	The	1	378.0	NA
80	25	22	M	Filler	103	5	desperate	2	99.0	NA
80	25	22	M	Filler	103	5	thief	3	51.0	NA
80	25	22	M	Filler	103	5	ran	4	83.0	NA
80	25	22	M	Filler	103	5	over	5	83.0	NA
80	25	22	M	Filler	103	5	a	6	84.0	NA
80	25	22	M	Filler	103	5	child	7	100.0	NA
80	25	22	M	Filler	103	5	in	8	82.0	NA
80	25	22	M	Filler	103	5	an	9	68.0	NA
80	25	22	M	Filler	103	5	attempt	10	83.0	NA
80	25	22	M	Filler	103	5	to	11	100.0	NA
80	25	22	M	Filler	103	5	dodge	12	117.0	NA
80	25	22	M	Filler	103	5	the	13	100.0	NA
80	25	22	M	Filler	103	5	cops.	14	100.0	NA
80	25	22	M	Question	103	5	NA	NA	3184.0	0
81	25	22	M	Filler	81	5	The	1	479.0	NA
81	25	22	M	Filler	81	5	stubborn	2	99.0	NA
81	25	22	M	Filler	81	5	old	3	66.0	NA
81	25	22	M	Filler	81	5	man	4	85.0	NA
81	25	22	M	Filler	81	5	criticized	5	67.0	NA
81	25	22	M	Filler	81	5	everything	6	82.0	NA
81	25	22	M	Filler	81	5	that	7	67.0	NA
81	25	22	M	Filler	81	5	the	8	67.0	NA
81	25	22	M	Filler	81	5	young	9	99.0	NA
81	25	22	M	Filler	81	5	student	10	67.0	NA
81	25	22	M	Filler	81	5	did.	11	83.0	NA
81	25	22	M	Question	81	5	NA	NA	1233.0	1
82	25	22	M	swets	11	2	The	1	378.0	NA
82	25	22	M	swets	11	2	mother	2	99.0	NA
82	25	22	M	swets	11	2	of	3	52.0	NA
82	25	22	M	swets	11	2	the	4	82.0	NA
82	25	22	M	swets	11	2	surgeon	5	99.0	NA
82	25	22	M	swets	11	2	who	6	84.0	NA
82	25	22	M	swets	11	2	made	7	68.0	NA
82	25	22	M	swets	11	2	a	8	132.0	NA
82	25	22	M	swets	11	2	fool	9	117.0	NA
82	25	22	M	swets	11	2	of	10	50.0	NA
82	25	22	M	swets	11	2	himself	11	101.0	NA
82	25	22	M	swets	11	2	at	12	100.0	NA
82	25	22	M	swets	11	2	the	13	115.0	NA
82	25	22	M	swets	11	2	party	14	100.0	NA
82	25	22	M	swets	11	2	was	15	101.0	NA
82	25	22	M	swets	11	2	greatly	16	134.0	NA
82	25	22	M	swets	11	2	embarrassed.	17	99.0	NA
82	25	22	M	Question	11	2	NA	NA	1900.0	0
83	25	22	M	Filler	98	5	The	1	445.0	NA
83	25	22	M	Filler	98	5	husband	2	101.0	NA
83	25	22	M	Filler	98	5	of	3	66.0	NA
83	25	22	M	Filler	98	5	the	4	383.0	NA
83	25	22	M	Filler	98	5	bestselling	5	100.0	NA
83	25	22	M	Filler	98	5	novelist	6	67.0	NA
83	25	22	M	Filler	98	5	was	7	250.0	NA
83	25	22	M	Filler	98	5	into	8	67.0	NA
83	25	22	M	Filler	98	5	collecting	9	82.0	NA
83	25	22	M	Filler	98	5	antiques.	10	133.0	NA
83	25	22	M	Question	98	5	NA	NA	1400.0	0
84	25	22	M	Filler	37	4	The	1	344.0	NA
84	25	22	M	Filler	37	4	party	2	67.0	NA
84	25	22	M	Filler	37	4	attracted	3	100.0	NA
84	25	22	M	Filler	37	4	the	4	67.0	NA
84	25	22	M	Filler	37	4	fraternity	5	150.0	NA
84	25	22	M	Filler	37	4	members	6	300.0	NA
84	25	22	M	Filler	37	4	whose	7	117.0	NA
84	25	22	M	Filler	37	4	house	8	150.0	NA
84	25	22	M	Filler	37	4	had	9	299.0	NA
84	25	22	M	Filler	37	4	been	10	234.0	NA
84	25	22	M	Filler	37	4	seized	11	166.0	NA
84	25	22	M	Filler	37	4	by	12	183.0	NA
84	25	22	M	Filler	37	4	drug	13	234.0	NA
84	25	22	M	Filler	37	4	agents.	14	182.0	NA
84	25	22	M	Question	37	4	NA	NA	3334.0	1
85	25	22	M	swets	21	3	The	1	382.0	NA
85	25	22	M	swets	21	3	wife	2	68.0	NA
85	25	22	M	swets	21	3	of	3	66.0	NA
85	25	22	M	swets	21	3	the	4	82.0	NA
85	25	22	M	swets	21	3	janitor	5	68.0	NA
85	25	22	M	swets	21	3	who	6	116.0	NA
85	25	22	M	swets	21	3	educated	7	67.0	NA
85	25	22	M	swets	21	3	herself	8	83.0	NA
85	25	22	M	swets	21	3	at	9	133.0	NA
85	25	22	M	swets	21	3	night	10	84.0	NA
85	25	22	M	swets	21	3	loved	11	83.0	NA
85	25	22	M	swets	21	3	going	12	150.0	NA
85	25	22	M	swets	21	3	to	13	83.0	NA
85	25	22	M	swets	21	3	the	14	100.0	NA
85	25	22	M	swets	21	3	theatre.	15	117.0	NA
85	25	22	M	Question	21	3	NA	NA	3718.0	1
86	25	22	M	Filler	144	7	The	1	415.0	NA
86	25	22	M	Filler	144	7	apple	2	267.0	NA
86	25	22	M	Filler	144	7	and	3	133.0	NA
86	25	22	M	Filler	144	7	potato	4	67.0	NA
86	25	22	M	Filler	144	7	went	5	100.0	NA
86	25	22	M	Filler	144	7	rotten	6	99.0	NA
86	25	22	M	Filler	144	7	after	7	117.0	NA
86	25	22	M	Filler	144	7	a	8	167.0	NA
86	25	22	M	Filler	144	7	week.	9	116.0	NA
86	25	22	M	Question	144	7	NA	NA	1333.0	1
87	25	22	M	Filler	86	5	The	1	330.0	NA
87	25	22	M	Filler	86	5	family's	2	100.0	NA
87	25	22	M	Filler	86	5	television	3	67.0	NA
87	25	22	M	Filler	86	5	stopped	4	68.0	NA
87	25	22	M	Filler	86	5	working	5	98.0	NA
87	25	22	M	Filler	86	5	two	6	68.0	NA
87	25	22	M	Filler	86	5	days	7	99.0	NA
87	25	22	M	Filler	86	5	after	8	84.0	NA
87	25	22	M	Filler	86	5	the	9	66.0	NA
87	25	22	M	Filler	86	5	warranty	10	67.0	NA
87	25	22	M	Filler	86	5	expired.	11	134.0	NA
87	25	22	M	Question	86	5	NA	NA	899.0	1
88	25	22	M	swets	3	3	The	1	229.0	NA
88	25	22	M	swets	3	3	secretary	2	100.0	NA
88	25	22	M	swets	3	3	of	3	50.0	NA
88	25	22	M	swets	3	3	the	4	84.0	NA
88	25	22	M	swets	3	3	salesman	5	99.0	NA
88	25	22	M	swets	3	3	who	6	83.0	NA
88	25	22	M	swets	3	3	amused	7	69.0	NA
88	25	22	M	swets	3	3	herself	8	114.0	NA
88	25	22	M	swets	3	3	quite	9	68.0	NA
88	25	22	M	swets	3	3	a	10	83.0	NA
88	25	22	M	swets	3	3	bit	11	99.0	NA
88	25	22	M	swets	3	3	was	12	85.0	NA
88	25	22	M	swets	3	3	writing	13	83.0	NA
88	25	22	M	swets	3	3	a	14	117.0	NA
88	25	22	M	swets	3	3	letter	15	82.0	NA
88	25	22	M	swets	3	3	to	16	84.0	NA
88	25	22	M	swets	3	3	the	17	116.0	NA
88	25	22	M	swets	3	3	editor.	18	83.0	NA
88	25	22	M	Question	3	3	NA	NA	1667.0	1
89	25	22	M	Filler	95	5	The	1	312.0	NA
89	25	22	M	Filler	95	5	receptionist	2	100.0	NA
89	25	22	M	Filler	95	5	of	3	83.0	NA
89	25	22	M	Filler	95	5	the	4	99.0	NA
89	25	22	M	Filler	95	5	company	5	117.0	NA
89	25	22	M	Filler	95	5	went	6	84.0	NA
89	25	22	M	Filler	95	5	home	7	99.0	NA
89	25	22	M	Filler	95	5	sick	8	84.0	NA
89	25	22	M	Filler	95	5	before	9	101.0	NA
89	25	22	M	Filler	95	5	moving	10	115.0	NA
89	25	22	M	Filler	95	5	across	11	84.0	NA
89	25	22	M	Filler	95	5	town.	12	133.0	NA
89	25	22	M	Question	95	5	NA	NA	5566.0	1
90	25	22	M	Filler	47	4	The	1	444.0	NA
90	25	22	M	Filler	47	4	boys	2	68.0	NA
90	25	22	M	Filler	47	4	all	3	67.0	NA
90	25	22	M	Filler	47	4	admired	4	83.0	NA
90	25	22	M	Filler	47	4	the	5	83.0	NA
90	25	22	M	Filler	47	4	singer	6	84.0	NA
90	25	22	M	Filler	47	4	of	7	66.0	NA
90	25	22	M	Filler	47	4	the	8	100.0	NA
90	25	22	M	Filler	47	4	song	9	83.0	NA
90	25	22	M	Filler	47	4	with	10	84.0	NA
90	25	22	M	Filler	47	4	the	11	100.0	NA
90	25	22	M	Filler	47	4	long	12	82.0	NA
90	25	22	M	Filler	47	4	eyelashes.	13	69.0	NA
90	25	22	M	Question	47	4	NA	NA	5099.0	1
91	25	22	M	Filler	57	4	The	1	361.0	NA
91	25	22	M	Filler	57	4	architect	2	100.0	NA
91	25	22	M	Filler	57	4	was	3	68.0	NA
91	25	22	M	Filler	57	4	embarrassed	4	99.0	NA
91	25	22	M	Filler	57	4	by	5	67.0	NA
91	25	22	M	Filler	57	4	the	6	267.0	NA
91	25	22	M	Filler	57	4	memo	7	116.0	NA
91	25	22	M	Filler	57	4	of	8	100.0	NA
91	25	22	M	Filler	57	4	the	9	67.0	NA
91	25	22	M	Filler	57	4	engineer	10	117.0	NA
91	25	22	M	Filler	57	4	because	11	133.0	NA
91	25	22	M	Filler	57	4	it	12	101.0	NA
91	25	22	M	Filler	57	4	said	13	132.0	NA
91	25	22	M	Filler	57	4	that	14	66.0	NA
91	25	22	M	Filler	57	4	his	15	101.0	NA
91	25	22	M	Filler	57	4	building	16	100.0	NA
91	25	22	M	Filler	57	4	would	17	84.0	NA
91	25	22	M	Filler	57	4	collapse.	18	117.0	NA
91	25	22	M	Question	57	4	NA	NA	1033.0	1
92	25	22	M	Filler	125	6	The	1	361.0	NA
92	25	22	M	Filler	125	6	bosses	2	100.0	NA
92	25	22	M	Filler	125	6	and	3	51.0	NA
92	25	22	M	Filler	125	6	secretaries	4	99.0	NA
92	25	22	M	Filler	125	6	took	5	52.0	NA
92	25	22	M	Filler	125	6	a	6	82.0	NA
92	25	22	M	Filler	125	6	long	7	99.0	NA
92	25	22	M	Filler	125	6	lunch	8	68.0	NA
92	25	22	M	Filler	125	6	together	9	132.0	NA
92	25	22	M	Filler	125	6	every	10	68.0	NA
92	25	22	M	Filler	125	6	Friday.	11	99.0	NA
92	25	22	M	Question	125	6	NA	NA	1600.0	1
93	25	22	M	Filler	111	6	While	1	295.0	NA
93	25	22	M	Filler	111	6	the	2	51.0	NA
93	25	22	M	Filler	111	6	clown	3	83.0	NA
93	25	22	M	Filler	111	6	juggled	4	100.0	NA
93	25	22	M	Filler	111	6	the	5	99.0	NA
93	25	22	M	Filler	111	6	balls	6	68.0	NA
93	25	22	M	Filler	111	6	fell	7	115.0	NA
93	25	22	M	Filler	111	6	to	8	51.0	NA
93	25	22	M	Filler	111	6	the	9	100.0	NA
93	25	22	M	Filler	111	6	ground.	10	101.0	NA
93	25	22	M	Question	111	6	NA	NA	1232.0	1
94	25	22	M	Filler	45	4	The	1	345.0	NA
94	25	22	M	Filler	45	4	plumber	2	66.0	NA
94	25	22	M	Filler	45	4	repaired	3	68.0	NA
94	25	22	M	Filler	45	4	the	4	83.0	NA
94	25	22	M	Filler	45	4	sink	5	99.0	NA
94	25	22	M	Filler	45	4	of	6	67.0	NA
94	25	22	M	Filler	45	4	the	7	84.0	NA
94	25	22	M	Filler	45	4	tenant	8	99.0	NA
94	25	22	M	Filler	45	4	because	9	100.0	NA
94	25	22	M	Filler	45	4	he	10	68.0	NA
94	25	22	M	Filler	45	4	had	11	100.0	NA
94	25	22	M	Filler	45	4	just	12	84.0	NA
94	25	22	M	Filler	45	4	moved	13	131.0	NA
94	25	22	M	Filler	45	4	in.	14	51.0	NA
94	25	22	M	Question	45	4	NA	NA	1166.0	1
95	25	22	M	Filler	38	4	Despite	1	694.0	NA
95	25	22	M	Filler	38	4	the	2	33.0	NA
95	25	22	M	Filler	38	4	lack	3	101.0	NA
95	25	22	M	Filler	38	4	of	4	82.0	NA
95	25	22	M	Filler	38	4	publicity	5	68.0	NA
95	25	22	M	Filler	38	4	many	6	83.0	NA
95	25	22	M	Filler	38	4	people	7	100.0	NA
95	25	22	M	Filler	38	4	attended	8	100.0	NA
95	25	22	M	Filler	38	4	the	9	83.0	NA
95	25	22	M	Filler	38	4	lecture.	10	100.0	NA
95	25	22	M	Question	38	4	NA	NA	1134.0	1
96	25	22	M	Filler	94	5	After	1	278.0	NA
96	25	22	M	Filler	94	5	months	2	51.0	NA
96	25	22	M	Filler	94	5	of	3	50.0	NA
96	25	22	M	Filler	94	5	preparation	4	100.0	NA
96	25	22	M	Filler	94	5	the	5	99.0	NA
96	25	22	M	Filler	94	5	ballerina	6	100.0	NA
96	25	22	M	Filler	94	5	was	7	101.0	NA
96	25	22	M	Filler	94	5	getting	8	132.0	NA
96	25	22	M	Filler	94	5	ready	9	68.0	NA
96	25	22	M	Filler	94	5	for	10	115.0	NA
96	25	22	M	Filler	94	5	opening	11	86.0	NA
96	25	22	M	Filler	94	5	night.	12	114.0	NA
96	25	22	M	Question	94	5	NA	NA	1534.0	1
97	25	22	M	Filler	127	7	While	1	327.0	NA
97	25	22	M	Filler	127	7	Linda	2	67.0	NA
97	25	22	M	Filler	127	7	wrote	3	51.0	NA
97	25	22	M	Filler	127	7	the	4	83.0	NA
97	25	22	M	Filler	127	7	letter	5	83.0	NA
97	25	22	M	Filler	127	7	arrived	6	101.0	NA
97	25	22	M	Filler	127	7	from	7	99.0	NA
97	25	22	M	Filler	127	7	Chicago.	8	100.0	NA
97	25	22	M	Question	127	7	NA	NA	1683.0	0
98	25	22	M	Filler	97	5	The	1	365.0	NA
98	25	22	M	Filler	97	5	tall	2	116.0	NA
98	25	22	M	Filler	97	5	man	3	101.0	NA
98	25	22	M	Filler	97	5	laughed	4	133.0	NA
98	25	22	M	Filler	97	5	at	5	116.0	NA
98	25	22	M	Filler	97	5	the	6	99.0	NA
98	25	22	M	Filler	97	5	clumsy	7	134.0	NA
98	25	22	M	Filler	97	5	child	8	101.0	NA
98	25	22	M	Filler	97	5	who	9	117.0	NA
98	25	22	M	Filler	97	5	spilled	10	133.0	NA
98	25	22	M	Filler	97	5	the	11	100.0	NA
98	25	22	M	Filler	97	5	milk	12	116.0	NA
98	25	22	M	Filler	97	5	on	13	84.0	NA
98	25	22	M	Filler	97	5	himself.	14	100.0	NA
98	25	22	M	Question	97	5	NA	NA	2700.0	1
99	25	22	M	swets	36	3	The	1	365.0	NA
99	25	22	M	swets	36	3	son	2	84.0	NA
99	25	22	M	swets	36	3	of	3	115.0	NA
99	25	22	M	swets	36	3	the	4	50.0	NA
99	25	22	M	swets	36	3	saleswoman	5	101.0	NA
99	25	22	M	swets	36	3	who	6	82.0	NA
99	25	22	M	swets	36	3	talked	7	116.0	NA
99	25	22	M	swets	36	3	to	8	67.0	NA
99	25	22	M	swets	36	3	himself	9	118.0	NA
99	25	22	M	swets	36	3	all	10	67.0	NA
99	25	22	M	swets	36	3	the	11	99.0	NA
99	25	22	M	swets	36	3	time	12	100.0	NA
99	25	22	M	swets	36	3	walked	13	68.0	NA
99	25	22	M	swets	36	3	into	14	100.0	NA
99	25	22	M	swets	36	3	the	15	82.0	NA
99	25	22	M	swets	36	3	room.	16	99.0	NA
99	25	22	M	Question	36	3	NA	NA	1700.0	1
100	25	22	M	Filler	99	5	The	1	330.0	NA
100	25	22	M	Filler	99	5	daring	2	183.0	NA
100	25	22	M	Filler	99	5	photographer	3	66.0	NA
100	25	22	M	Filler	99	5	captured	4	69.0	NA
100	25	22	M	Filler	99	5	the	5	232.0	NA
100	25	22	M	Filler	99	5	image	6	100.0	NA
100	25	22	M	Filler	99	5	of	7	50.0	NA
100	25	22	M	Filler	99	5	the	8	67.0	NA
100	25	22	M	Filler	99	5	destruction	9	166.0	NA
100	25	22	M	Filler	99	5	as	10	100.0	NA
100	25	22	M	Filler	99	5	it	11	99.0	NA
100	25	22	M	Filler	99	5	devastated	12	86.0	NA
100	25	22	M	Filler	99	5	the	13	83.0	NA
100	25	22	M	Filler	99	5	village.	14	132.0	NA
100	25	22	M	Question	99	5	NA	NA	1166.0	1
101	25	22	M	Filler	71	4	The	1	346.0	NA
101	25	22	M	Filler	71	4	elderly	2	67.0	NA
101	25	22	M	Filler	71	4	woman	3	67.0	NA
101	25	22	M	Filler	71	4	locked	4	83.0	NA
101	25	22	M	Filler	71	4	and	5	199.0	NA
101	25	22	M	Filler	71	4	bolted	6	100.0	NA
101	25	22	M	Filler	71	4	her	7	83.0	NA
101	25	22	M	Filler	71	4	door	8	68.0	NA
101	25	22	M	Filler	71	4	every	9	99.0	NA
101	25	22	M	Filler	71	4	night	10	67.0	NA
101	25	22	M	Filler	71	4	after	11	168.0	NA
101	25	22	M	Filler	71	4	the	12	148.0	NA
101	25	22	M	Filler	71	4	robbers	13	418.0	NA
101	25	22	M	Filler	71	4	took	14	182.0	NA
101	25	22	M	Filler	71	4	her	15	84.0	NA
101	25	22	M	Filler	71	4	best	16	234.0	NA
101	25	22	M	Filler	71	4	pearls.	17	215.0	NA
101	25	22	M	Question	71	4	NA	NA	1500.0	1
102	25	22	M	Filler	40	4	The	1	177.0	NA
102	25	22	M	Filler	40	4	boy's	2	99.0	NA
102	25	22	M	Filler	40	4	mother	3	84.0	NA
102	25	22	M	Filler	40	4	was	4	68.0	NA
102	25	22	M	Filler	40	4	very	5	67.0	NA
102	25	22	M	Filler	40	4	happy	6	116.0	NA
102	25	22	M	Filler	40	4	to	7	266.0	NA
102	25	22	M	Filler	40	4	see	8	117.0	NA
102	25	22	M	Filler	40	4	good	9	283.0	NA
102	25	22	M	Filler	40	4	grades	10	118.0	NA
102	25	22	M	Filler	40	4	on	11	50.0	NA
102	25	22	M	Filler	40	4	his	12	182.0	NA
102	25	22	M	Filler	40	4	report	13	117.0	NA
102	25	22	M	Filler	40	4	card.	14	101.0	NA
102	25	22	M	Question	40	4	NA	NA	1366.0	1
103	25	22	M	Filler	133	7	While	1	93.0	NA
103	25	22	M	Filler	133	7	the	2	85.0	NA
103	25	22	M	Filler	133	7	lawyers	3	100.0	NA
103	25	22	M	Filler	133	7	fought	4	99.0	NA
103	25	22	M	Filler	133	7	the	5	68.0	NA
103	25	22	M	Filler	133	7	ruling	6	99.0	NA
103	25	22	M	Filler	133	7	the	7	100.0	NA
103	25	22	M	Filler	133	7	judge	8	100.0	NA
103	25	22	M	Filler	133	7	announced	9	66.0	NA
103	25	22	M	Filler	133	7	the	10	117.0	NA
103	25	22	M	Filler	133	7	decision.	11	68.0	NA
103	25	22	M	Question	133	7	NA	NA	1166.0	0
104	25	22	M	Filler	119	6	Everybody	1	828.0	NA
104	25	22	M	Filler	119	6	is	2	117.0	NA
104	25	22	M	Filler	119	6	wondering	3	68.0	NA
104	25	22	M	Filler	119	6	which	4	84.0	NA
104	25	22	M	Filler	119	6	software	5	99.0	NA
104	25	22	M	Filler	119	6	Gary	6	99.0	NA
104	25	22	M	Filler	119	6	installed	7	85.0	NA
104	25	22	M	Filler	119	6	without	8	99.0	NA
104	25	22	M	Filler	119	6	buying	9	100.0	NA
104	25	22	M	Filler	119	6	last	10	84.0	NA
104	25	22	M	Filler	119	6	June.	11	100.0	NA
104	25	22	M	Question	119	6	NA	NA	1232.0	1
105	25	22	M	swets	13	1	The	1	345.0	NA
105	25	22	M	swets	13	1	great-uncle	2	98.0	NA
105	25	22	M	swets	13	1	of	3	52.0	NA
105	25	22	M	swets	13	1	the	4	82.0	NA
105	25	22	M	swets	13	1	policeman	5	299.0	NA
105	25	22	M	swets	13	1	who	6	68.0	NA
105	25	22	M	swets	13	1	treated	7	116.0	NA
105	25	22	M	swets	13	1	himself	8	250.0	NA
105	25	22	M	swets	13	1	after	9	67.0	NA
105	25	22	M	swets	13	1	the	10	50.0	NA
105	25	22	M	swets	13	1	accident	11	234.0	NA
105	25	22	M	swets	13	1	was	12	99.0	NA
105	25	22	M	swets	13	1	watching	13	34.0	NA
105	25	22	M	swets	13	1	the	14	300.0	NA
105	25	22	M	swets	13	1	news.	15	99.0	NA
105	25	22	M	Question	13	1	NA	NA	1451.0	0
106	25	22	M	Filler	73	5	My	1	361.0	NA
106	25	22	M	Filler	73	5	cousins	2	67.0	NA
106	25	22	M	Filler	73	5	admired	3	100.0	NA
106	25	22	M	Filler	73	5	the	4	100.0	NA
106	25	22	M	Filler	73	5	singer	5	83.0	NA
106	25	22	M	Filler	73	5	although	6	100.0	NA
106	25	22	M	Filler	73	5	she	7	83.0	NA
106	25	22	M	Filler	73	5	never	8	101.0	NA
106	25	22	M	Filler	73	5	became	9	100.0	NA
106	25	22	M	Filler	73	5	popular.	10	98.0	NA
106	25	22	M	Question	73	5	NA	NA	4701.0	1
107	25	22	M	swets	2	2	The	1	560.0	NA
107	25	22	M	swets	2	2	sister	2	102.0	NA
107	25	22	M	swets	2	2	of	3	99.0	NA
107	25	22	M	swets	2	2	the	4	101.0	NA
107	25	22	M	swets	2	2	fireman	5	134.0	NA
107	25	22	M	swets	2	2	who	6	82.0	NA
107	25	22	M	swets	2	2	criticized	7	133.0	NA
107	25	22	M	swets	2	2	himself	8	117.0	NA
107	25	22	M	swets	2	2	far	9	100.0	NA
107	25	22	M	swets	2	2	too	10	85.0	NA
107	25	22	M	swets	2	2	often	11	100.0	NA
107	25	22	M	swets	2	2	was	12	115.0	NA
107	25	22	M	swets	2	2	painting	13	118.0	NA
107	25	22	M	swets	2	2	the	14	100.0	NA
107	25	22	M	swets	2	2	bedroom.	15	100.0	NA
107	25	22	M	Question	2	2	NA	NA	1482.0	1
108	25	22	M	Filler	108	5	The	1	361.0	NA
108	25	22	M	Filler	108	5	museum	2	67.0	NA
108	25	22	M	Filler	108	5	wing	3	82.0	NA
108	25	22	M	Filler	108	5	which	4	52.0	NA
108	25	22	M	Filler	108	5	housed	5	332.0	NA
108	25	22	M	Filler	108	5	all	6	50.0	NA
108	25	22	M	Filler	108	5	the	7	82.0	NA
108	25	22	M	Filler	108	5	Picasso	8	367.0	NA
108	25	22	M	Filler	108	5	paintings	9	67.0	NA
108	25	22	M	Filler	108	5	was	10	284.0	NA
108	25	22	M	Filler	108	5	very	11	166.0	NA
108	25	22	M	Filler	108	5	crowded.	12	101.0	NA
108	25	22	M	Question	108	5	NA	NA	4516.0	1
109	25	22	M	Filler	129	7	While	1	433.0	NA
109	25	22	M	Filler	129	7	Scott	2	67.0	NA
109	25	22	M	Filler	129	7	vacuumed	3	67.0	NA
109	25	22	M	Filler	129	7	the	4	82.0	NA
109	25	22	M	Filler	129	7	carpet	5	167.0	NA
109	25	22	M	Filler	129	7	the	6	68.0	NA
109	25	22	M	Filler	129	7	drapes	7	132.0	NA
109	25	22	M	Filler	129	7	flapped	8	133.0	NA
109	25	22	M	Filler	129	7	in	9	385.0	NA
109	25	22	M	Filler	129	7	the	10	133.0	NA
109	25	22	M	Filler	129	7	breeze.	11	166.0	NA
109	25	22	M	Question	129	7	NA	NA	1199.0	0
110	25	22	M	Filler	62	4	After	1	1633.0	NA
110	25	22	M	Filler	62	4	much	2	66.0	NA
110	25	22	M	Filler	62	4	deliberation	3	67.0	NA
110	25	22	M	Filler	62	4	the	4	100.0	NA
110	25	22	M	Filler	62	4	jury	5	233.0	NA
110	25	22	M	Filler	62	4	found	6	99.0	NA
110	25	22	M	Filler	62	4	the	7	84.0	NA
110	25	22	M	Filler	62	4	defendant	8	100.0	NA
110	25	22	M	Filler	62	4	not	9	133.0	NA
110	25	22	M	Filler	62	4	guilty.	10	100.0	NA
110	25	22	M	Question	62	4	NA	NA	2101.0	1
111	25	22	M	Filler	104	5	Despite	1	697.0	NA
111	25	22	M	Filler	104	5	the	2	335.0	NA
111	25	22	M	Filler	104	5	relative	3	199.0	NA
111	25	22	M	Filler	104	5	lack	4	251.0	NA
111	25	22	M	Filler	104	5	of	5	249.0	NA
111	25	22	M	Filler	104	5	rain	6	217.0	NA
111	25	22	M	Filler	104	5	the	7	184.0	NA
111	25	22	M	Filler	104	5	farmer	8	332.0	NA
111	25	22	M	Filler	104	5	harvested	9	133.0	NA
111	25	22	M	Filler	104	5	much	10	201.0	NA
111	25	22	M	Filler	104	5	wheat.	11	299.0	NA
111	25	22	M	Question	104	5	NA	NA	1367.0	1
112	25	22	M	Filler	55	4	The	1	396.0	NA
112	25	22	M	Filler	55	4	people	2	101.0	NA
112	25	22	M	Filler	55	4	certainly	3	100.0	NA
112	25	22	M	Filler	55	4	admired	4	100.0	NA
112	25	22	M	Filler	55	4	the	5	83.0	NA
112	25	22	M	Filler	55	4	wife	6	83.0	NA
112	25	22	M	Filler	55	4	of	7	583.0	NA
112	25	22	M	Filler	55	4	the	8	85.0	NA
112	25	22	M	Filler	55	4	janitor	9	98.0	NA
112	25	22	M	Filler	55	4	because	10	167.0	NA
112	25	22	M	Filler	55	4	she	11	183.0	NA
112	25	22	M	Filler	55	4	educated	12	101.0	NA
112	25	22	M	Filler	55	4	herself	13	115.0	NA
112	25	22	M	Filler	55	4	at	14	86.0	NA
112	25	22	M	Filler	55	4	night.	15	116.0	NA
112	25	22	M	Question	55	4	NA	NA	1366.0	1
113	25	22	M	swets	12	3	The	1	296.0	NA
113	25	22	M	swets	12	3	son	2	184.0	NA
113	25	22	M	swets	12	3	of	3	115.0	NA
113	25	22	M	swets	12	3	the	4	50.0	NA
113	25	22	M	swets	12	3	princess	5	101.0	NA
113	25	22	M	swets	12	3	who	6	115.0	NA
113	25	22	M	swets	12	3	scratched	7	217.0	NA
113	25	22	M	swets	12	3	herself	8	135.0	NA
113	25	22	M	swets	12	3	in	9	66.0	NA
113	25	22	M	swets	12	3	public	10	133.0	NA
113	25	22	M	swets	12	3	was	11	83.0	NA
113	25	22	M	swets	12	3	terribly	12	166.0	NA
113	25	22	M	swets	12	3	humiliated.	13	101.0	NA
113	25	22	M	Question	12	3	NA	NA	2317.0	0
114	25	22	M	Filler	105	5	The	1	710.0	NA
114	25	22	M	Filler	105	5	actors	2	417.0	NA
114	25	22	M	Filler	105	5	rehearsed	3	200.0	NA
114	25	22	M	Filler	105	5	the	4	283.0	NA
114	25	22	M	Filler	105	5	play	5	151.0	NA
114	25	22	M	Filler	105	5	so	6	165.0	NA
114	25	22	M	Filler	105	5	much	7	133.0	NA
114	25	22	M	Filler	105	5	that	8	118.0	NA
114	25	22	M	Filler	105	5	they	9	133.0	NA
114	25	22	M	Filler	105	5	became	10	101.0	NA
114	25	22	M	Filler	105	5	bored	11	100.0	NA
114	25	22	M	Filler	105	5	with	12	183.0	NA
114	25	22	M	Filler	105	5	it.	13	117.0	NA
114	25	22	M	Question	105	5	NA	NA	1232.0	1
115	25	22	M	Filler	49	4	The	1	7512.0	NA
115	25	22	M	Filler	49	4	construction	2	67.0	NA
115	25	22	M	Filler	49	4	worker	3	67.0	NA
115	25	22	M	Filler	49	4	sued	4	66.0	NA
115	25	22	M	Filler	49	4	the	5	83.0	NA
115	25	22	M	Filler	49	4	son	6	84.0	NA
115	25	22	M	Filler	49	4	of	7	115.0	NA
115	25	22	M	Filler	49	4	that	8	83.0	NA
115	25	22	M	Filler	49	4	greedy	9	68.0	NA
115	25	22	M	Filler	49	4	banker.	10	68.0	NA
115	25	22	M	Question	49	4	NA	NA	1831.0	1
116	25	22	M	swets	4	1	The	1	412.0	NA
116	25	22	M	swets	4	1	mother	2	365.0	NA
116	25	22	M	swets	4	1	of	3	84.0	NA
116	25	22	M	swets	4	1	the	4	84.0	NA
116	25	22	M	swets	4	1	bride	5	67.0	NA
116	25	22	M	swets	4	1	who	6	83.0	NA
116	25	22	M	swets	4	1	embarrassed	7	101.0	NA
116	25	22	M	swets	4	1	herself	8	66.0	NA
116	25	22	M	swets	4	1	at	9	83.0	NA
116	25	22	M	swets	4	1	the	10	83.0	NA
116	25	22	M	swets	4	1	reception	11	100.0	NA
116	25	22	M	swets	4	1	was	12	118.0	NA
116	25	22	M	swets	4	1	complaining	13	331.0	NA
116	25	22	M	swets	4	1	to	14	68.0	NA
116	25	22	M	swets	4	1	the	15	116.0	NA
116	25	22	M	swets	4	1	priest.	16	67.0	NA
116	25	22	M	Question	4	1	NA	NA	1067.0	0
117	25	22	M	Filler	41	4	While	1	95.0	NA
117	25	22	M	Filler	41	4	the	2	66.0	NA
117	25	22	M	Filler	41	4	babysitter	3	67.0	NA
117	25	22	M	Filler	41	4	watched	4	83.0	NA
117	25	22	M	Filler	41	4	soap	5	67.0	NA
117	25	22	M	Filler	41	4	operas	6	100.0	NA
117	25	22	M	Filler	41	4	the	7	84.0	NA
117	25	22	M	Filler	41	4	child	8	133.0	NA
117	25	22	M	Filler	41	4	poured	9	67.0	NA
117	25	22	M	Filler	41	4	honey	10	98.0	NA
117	25	22	M	Filler	41	4	all	11	68.0	NA
117	25	22	M	Filler	41	4	over	12	84.0	NA
117	25	22	M	Filler	41	4	the	13	82.0	NA
117	25	22	M	Filler	41	4	floor.	14	68.0	NA
117	25	22	M	Question	41	4	NA	NA	1132.0	1
118	25	22	M	Filler	63	4	The	1	278.0	NA
118	25	22	M	Filler	63	4	bride	2	67.0	NA
118	25	22	M	Filler	63	4	was	3	66.0	NA
118	25	22	M	Filler	63	4	devastated	4	101.0	NA
118	25	22	M	Filler	63	4	to	5	66.0	NA
118	25	22	M	Filler	63	4	lose	6	83.0	NA
118	25	22	M	Filler	63	4	her	7	268.0	NA
118	25	22	M	Filler	63	4	gold	8	98.0	NA
118	25	22	M	Filler	63	4	ring	9	100.0	NA
118	25	22	M	Filler	63	4	with	10	84.0	NA
118	25	22	M	Filler	63	4	a	11	68.0	NA
118	25	22	M	Filler	63	4	gleaming	12	132.0	NA
118	25	22	M	Filler	63	4	diamond	13	67.0	NA
118	25	22	M	Filler	63	4	in	14	83.0	NA
118	25	22	M	Filler	63	4	the	15	85.0	NA
118	25	22	M	Filler	63	4	middle.	16	66.0	NA
118	25	22	M	Question	63	4	NA	NA	1566.0	1
119	25	22	M	Filler	138	7	While	1	395.0	NA
119	25	22	M	Filler	138	7	Pedro	2	67.0	NA
119	25	22	M	Filler	138	7	was	3	83.0	NA
119	25	22	M	Filler	138	7	swimming	4	67.0	NA
119	25	22	M	Filler	138	7	the	5	50.0	NA
119	25	22	M	Filler	138	7	lifeguard	6	132.0	NA
119	25	22	M	Filler	138	7	sat	7	84.0	NA
119	25	22	M	Filler	138	7	in	8	83.0	NA
119	25	22	M	Filler	138	7	his	9	84.0	NA
119	25	22	M	Filler	138	7	chair.	10	68.0	NA
119	25	22	M	Question	138	7	NA	NA	1115.0	1
120	25	22	M	swets	29	2	The	1	394.0	NA
120	25	22	M	swets	29	2	daughter	2	235.0	NA
120	25	22	M	swets	29	2	of	3	250.0	NA
120	25	22	M	swets	29	2	the	4	83.0	NA
120	25	22	M	swets	29	2	colonel	5	99.0	NA
120	25	22	M	swets	29	2	who	6	135.0	NA
120	25	22	M	swets	29	2	enjoyed	7	298.0	NA
120	25	22	M	swets	29	2	himself	8	100.0	NA
120	25	22	M	swets	29	2	a	9	68.0	NA
120	25	22	M	swets	29	2	lot	10	233.0	NA
120	25	22	M	swets	29	2	was	11	101.0	NA
120	25	22	M	swets	29	2	out	12	67.0	NA
120	25	22	M	swets	29	2	on	13	316.0	NA
120	25	22	M	swets	29	2	the	14	149.0	NA
120	25	22	M	swets	29	2	balcony.	15	68.0	NA
120	25	22	M	Question	29	2	NA	NA	1599.0	1
121	25	22	M	Filler	66	4	The	1	399.0	NA
121	25	22	M	Filler	66	4	rare	2	217.0	NA
121	25	22	M	Filler	66	4	and	3	182.0	NA
121	25	22	M	Filler	66	4	exotic	4	167.0	NA
121	25	22	M	Filler	66	4	monkey	5	168.0	NA
121	25	22	M	Filler	66	4	was	6	182.0	NA
121	25	22	M	Filler	66	4	the	7	183.0	NA
121	25	22	M	Filler	66	4	center	8	167.0	NA
121	25	22	M	Filler	66	4	of	9	150.0	NA
121	25	22	M	Filler	66	4	attention	10	167.0	NA
121	25	22	M	Filler	66	4	at	11	182.0	NA
121	25	22	M	Filler	66	4	the	12	151.0	NA
121	25	22	M	Filler	66	4	zoo.	13	167.0	NA
121	25	22	M	Question	66	4	NA	NA	1168.0	1
122	25	22	M	Filler	74	5	My	1	331.0	NA
122	25	22	M	Filler	74	5	former	2	100.0	NA
122	25	22	M	Filler	74	5	girlfriend	3	101.0	NA
122	25	22	M	Filler	74	5	criticized	4	99.0	NA
122	25	22	M	Filler	74	5	the	5	85.0	NA
122	25	22	M	Filler	74	5	author's	6	132.0	NA
122	25	22	M	Filler	74	5	agent	7	101.0	NA
122	25	22	M	Filler	74	5	because	8	132.0	NA
122	25	22	M	Filler	74	5	he	9	85.0	NA
122	25	22	M	Filler	74	5	had	10	115.0	NA
122	25	22	M	Filler	74	5	failed	11	85.0	NA
122	25	22	M	Filler	74	5	to	12	99.0	NA
122	25	22	M	Filler	74	5	meet	13	117.0	NA
122	25	22	M	Filler	74	5	a	14	66.0	NA
122	25	22	M	Filler	74	5	deadline.	15	134.0	NA
122	25	22	M	Question	74	5	NA	NA	2667.0	1
123	25	22	M	Filler	124	6	The	1	113.0	NA
123	25	22	M	Filler	124	6	mothers	2	100.0	NA
123	25	22	M	Filler	124	6	and	3	167.0	NA
123	25	22	M	Filler	124	6	teachers	4	133.0	NA
123	25	22	M	Filler	124	6	played	5	133.0	NA
123	25	22	M	Filler	124	6	tennis	6	117.0	NA
123	25	22	M	Filler	124	6	after	7	116.0	NA
123	25	22	M	Filler	124	6	the	8	134.0	NA
123	25	22	M	Filler	124	6	kids	9	101.0	NA
123	25	22	M	Filler	124	6	left.	10	131.0	NA
123	25	22	M	Question	124	6	NA	NA	900.0	1
124	25	22	M	Filler	135	7	While	1	362.0	NA
124	25	22	M	Filler	135	7	Donna	2	101.0	NA
124	25	22	M	Filler	135	7	and	3	133.0	NA
124	25	22	M	Filler	135	7	Scott	4	116.0	NA
124	25	22	M	Filler	135	7	met	5	118.0	NA
124	25	22	M	Filler	135	7	their	6	117.0	NA
124	25	22	M	Filler	135	7	agent	7	132.0	NA
124	25	22	M	Filler	135	7	some	8	116.0	NA
124	25	22	M	Filler	135	7	friends	9	101.0	NA
124	25	22	M	Filler	135	7	called	10	117.0	NA
124	25	22	M	Filler	135	7	and	11	117.0	NA
124	25	22	M	Filler	135	7	left	12	133.0	NA
124	25	22	M	Filler	135	7	a	13	100.0	NA
124	25	22	M	Filler	135	7	message.	14	334.0	NA
124	25	22	M	Question	135	7	NA	NA	1648.0	0
125	25	22	M	Filler	139	7	Laurie	1	144.0	NA
125	25	22	M	Filler	139	7	asked	2	100.0	NA
125	25	22	M	Filler	139	7	which	3	100.0	NA
125	25	22	M	Filler	139	7	truck	4	67.0	NA
125	25	22	M	Filler	139	7	the	5	67.0	NA
125	25	22	M	Filler	139	7	dealership	6	99.0	NA
125	25	22	M	Filler	139	7	sold	7	67.0	NA
125	25	22	M	Filler	139	7	but	8	68.0	NA
125	25	22	M	Filler	139	7	didn't	9	99.0	NA
125	25	22	M	Filler	139	7	paint	10	99.0	NA
125	25	22	M	Filler	139	7	completely.	11	67.0	NA
125	25	22	M	Question	139	7	NA	NA	1567.0	1
126	25	22	M	swets	10	1	The	1	345.0	NA
126	25	22	M	swets	10	1	aunt	2	100.0	NA
126	25	22	M	swets	10	1	of	3	83.0	NA
126	25	22	M	swets	10	1	the	4	84.0	NA
126	25	22	M	swets	10	1	nun	5	334.0	NA
126	25	22	M	swets	10	1	who	6	98.0	NA
126	25	22	M	swets	10	1	lost	7	100.0	NA
126	25	22	M	swets	10	1	herself	8	101.0	NA
126	25	22	M	swets	10	1	in	9	84.0	NA
126	25	22	M	swets	10	1	thought	10	133.0	NA
126	25	22	M	swets	10	1	was	11	99.0	NA
126	25	22	M	swets	10	1	disturbed	12	101.0	NA
126	25	22	M	swets	10	1	by	13	600.0	NA
126	25	22	M	swets	10	1	the	14	217.0	NA
126	25	22	M	swets	10	1	noise.	15	199.0	NA
126	25	22	M	Question	10	1	NA	NA	3417.0	0
127	25	22	M	Filler	58	4	The	1	463.0	NA
127	25	22	M	Filler	58	4	white	2	299.0	NA
127	25	22	M	Filler	58	4	dog	3	299.0	NA
127	25	22	M	Filler	58	4	bit	4	235.0	NA
127	25	22	M	Filler	58	4	the	5	332.0	NA
127	25	22	M	Filler	58	4	ankle	6	234.0	NA
127	25	22	M	Filler	58	4	of	7	250.0	NA
127	25	22	M	Filler	58	4	the	8	251.0	NA
127	25	22	M	Filler	58	4	child.	9	265.0	NA
127	25	22	M	Question	58	4	NA	NA	2367.0	1
128	25	22	M	Filler	92	5	The	1	293.0	NA
128	25	22	M	Filler	92	5	personal	2	201.0	NA
128	25	22	M	Filler	92	5	trainer	3	233.0	NA
128	25	22	M	Filler	92	5	was	4	167.0	NA
128	25	22	M	Filler	92	5	popular	5	200.0	NA
128	25	22	M	Filler	92	5	among	6	167.0	NA
128	25	22	M	Filler	92	5	athletes	7	199.0	NA
128	25	22	M	Filler	92	5	after	8	167.0	NA
128	25	22	M	Filler	92	5	he	9	167.0	NA
128	25	22	M	Filler	92	5	helped	10	168.0	NA
128	25	22	M	Filler	92	5	the	11	199.0	NA
128	25	22	M	Filler	92	5	bodybuilder	12	166.0	NA
128	25	22	M	Filler	92	5	win	13	200.0	NA
128	25	22	M	Filler	92	5	the	14	200.0	NA
128	25	22	M	Filler	92	5	competition.	15	201.0	NA
128	25	22	M	Question	92	5	NA	NA	1332.0	0
129	25	22	M	Filler	46	4	The	1	345.0	NA
129	25	22	M	Filler	46	4	preacher	2	134.0	NA
129	25	22	M	Filler	46	4	of	3	116.0	NA
129	25	22	M	Filler	46	4	the	4	150.0	NA
129	25	22	M	Filler	46	4	congregation	5	133.0	NA
129	25	22	M	Filler	46	4	had	6	101.0	NA
129	25	22	M	Filler	46	4	given	7	133.0	NA
129	25	22	M	Filler	46	4	a	8	117.0	NA
129	25	22	M	Filler	46	4	sermon	9	133.0	NA
129	25	22	M	Filler	46	4	at	10	134.0	NA
129	25	22	M	Filler	46	4	a	11	149.0	NA
129	25	22	M	Filler	46	4	local	12	134.0	NA
129	25	22	M	Filler	46	4	school.	13	166.0	NA
129	25	22	M	Question	46	4	NA	NA	2601.0	1
130	25	22	M	Filler	121	6	The	1	479.0	NA
130	25	22	M	Filler	121	6	ecologist	2	299.0	NA
130	25	22	M	Filler	121	6	wondered	3	135.0	NA
130	25	22	M	Filler	121	6	which	4	165.0	NA
130	25	22	M	Filler	121	6	plants	5	101.0	NA
130	25	22	M	Filler	121	6	the	6	133.0	NA
130	25	22	M	Filler	121	6	scientist	7	133.0	NA
130	25	22	M	Filler	121	6	grew	8	168.0	NA
130	25	22	M	Filler	121	6	but	9	149.0	NA
130	25	22	M	Filler	121	6	didn't	10	165.0	NA
130	25	22	M	Filler	121	6	modify	11	135.0	NA
130	25	22	M	Filler	121	6	the	12	133.0	NA
130	25	22	M	Filler	121	6	seeds	13	167.0	NA
130	25	22	M	Filler	121	6	of	14	166.0	NA
130	25	22	M	Filler	121	6	in	15	134.0	NA
130	25	22	M	Filler	121	6	the	16	150.0	NA
130	25	22	M	Filler	121	6	lab.	17	150.0	NA
130	25	22	M	Question	121	6	NA	NA	1365.0	1
131	25	22	M	Filler	130	7	While	1	962.0	NA
131	25	22	M	Filler	130	7	Margo	2	367.0	NA
131	25	22	M	Filler	130	7	bathed	3	433.0	NA
131	25	22	M	Filler	130	7	the	4	700.0	NA
131	25	22	M	Filler	130	7	dog	5	383.0	NA
131	25	22	M	Filler	130	7	barked	6	301.0	NA
131	25	22	M	Filler	130	7	in	7	234.0	NA
131	25	22	M	Filler	130	7	the	8	133.0	NA
131	25	22	M	Filler	130	7	yard.	9	167.0	NA
131	25	22	M	Question	130	7	NA	NA	1964.0	1
132	25	22	M	Filler	56	4	The	1	443.0	NA
132	25	22	M	Filler	56	4	actor	2	135.0	NA
132	25	22	M	Filler	56	4	said	3	100.0	NA
132	25	22	M	Filler	56	4	the	4	116.0	NA
132	25	22	M	Filler	56	4	audiences	5	133.0	NA
132	25	22	M	Filler	56	4	believed	6	100.0	NA
132	25	22	M	Filler	56	4	the	7	100.0	NA
132	25	22	M	Filler	56	4	nasty	8	101.0	NA
132	25	22	M	Filler	56	4	remarks	9	99.0	NA
132	25	22	M	Filler	56	4	made	10	100.0	NA
132	25	22	M	Filler	56	4	by	11	100.0	NA
132	25	22	M	Filler	56	4	the	12	67.0	NA
132	25	22	M	Filler	56	4	film	13	100.0	NA
132	25	22	M	Filler	56	4	critic.	14	100.0	NA
132	25	22	M	Question	56	4	NA	NA	1499.0	1
133	25	22	M	Filler	114	6	While	1	498.0	NA
133	25	22	M	Filler	114	6	the	2	235.0	NA
133	25	22	M	Filler	114	6	winners	3	199.0	NA
133	25	22	M	Filler	114	6	were	4	150.0	NA
133	25	22	M	Filler	114	6	kissing	5	201.0	NA
133	25	22	M	Filler	114	6	the	6	167.0	NA
133	25	22	M	Filler	114	6	crowd	7	165.0	NA
133	25	22	M	Filler	114	6	cheered	8	184.0	NA
133	25	22	M	Filler	114	6	wildly.	9	166.0	NA
133	25	22	M	Question	114	6	NA	NA	1117.0	1
134	25	22	M	swets	7	1	The	1	248.0	NA
134	25	22	M	swets	7	1	niece	2	100.0	NA
134	25	22	M	swets	7	1	of	3	117.0	NA
134	25	22	M	swets	7	1	the	4	133.0	NA
134	25	22	M	swets	7	1	waitress	5	134.0	NA
134	25	22	M	swets	7	1	who	6	133.0	NA
134	25	22	M	swets	7	1	hurt	7	133.0	NA
134	25	22	M	swets	7	1	herself	8	133.0	NA
134	25	22	M	swets	7	1	on	9	150.0	NA
134	25	22	M	swets	7	1	the	10	134.0	NA
134	25	22	M	swets	7	1	bicycle	11	133.0	NA
134	25	22	M	swets	7	1	was	12	133.0	NA
134	25	22	M	swets	7	1	angry	13	133.0	NA
134	25	22	M	swets	7	1	about	14	132.0	NA
134	25	22	M	swets	7	1	the	15	118.0	NA
134	25	22	M	swets	7	1	incident.	16	133.0	NA
134	25	22	M	Question	7	1	NA	NA	2767.0	0
135	25	22	M	Filler	69	4	The	1	8046.0	NA
135	25	22	M	Filler	69	4	tiny	2	735.0	NA
135	25	22	M	Filler	69	4	child	3	333.0	NA
135	25	22	M	Filler	69	4	rolled	4	267.0	NA
135	25	22	M	Filler	69	4	the	5	249.0	NA
135	25	22	M	Filler	69	4	piece	6	299.0	NA
135	25	22	M	Filler	69	4	of	7	234.0	NA
135	25	22	M	Filler	69	4	the	8	135.0	NA
135	25	22	M	Filler	69	4	toy	9	133.0	NA
135	25	22	M	Filler	69	4	into	10	100.0	NA
135	25	22	M	Filler	69	4	the	11	83.0	NA
135	25	22	M	Filler	69	4	next	12	67.0	NA
135	25	22	M	Filler	69	4	room	13	67.0	NA
135	25	22	M	Filler	69	4	after	14	99.0	NA
135	25	22	M	Filler	69	4	it	15	66.0	NA
135	25	22	M	Filler	69	4	broke	16	68.0	NA
135	25	22	M	Filler	69	4	off.	17	67.0	NA
135	25	22	M	Question	69	4	NA	NA	1100.0	1
136	25	22	M	Filler	100	5	There	1	328.0	NA
136	25	22	M	Filler	100	5	was	2	99.0	NA
136	25	22	M	Filler	100	5	a	3	67.0	NA
136	25	22	M	Filler	100	5	large	4	100.0	NA
136	25	22	M	Filler	100	5	sale	5	68.0	NA
136	25	22	M	Filler	100	5	on	6	100.0	NA
136	25	22	M	Filler	100	5	stationary	7	66.0	NA
136	25	22	M	Filler	100	5	and	8	116.0	NA
136	25	22	M	Filler	100	5	office	9	134.0	NA
136	25	22	M	Filler	100	5	supplies	10	66.0	NA
136	25	22	M	Filler	100	5	at	11	133.0	NA
136	25	22	M	Filler	100	5	the	12	52.0	NA
136	25	22	M	Filler	100	5	student	13	132.0	NA
136	25	22	M	Filler	100	5	bookstore.	14	68.0	NA
136	25	22	M	Question	100	5	NA	NA	1033.0	1
137	25	22	M	Filler	78	5	The	1	328.0	NA
137	25	22	M	Filler	78	5	customer	2	67.0	NA
137	25	22	M	Filler	78	5	complimented	3	98.0	NA
137	25	22	M	Filler	78	5	the	4	68.0	NA
137	25	22	M	Filler	78	5	store	5	99.0	NA
137	25	22	M	Filler	78	5	keeper	6	100.0	NA
137	25	22	M	Filler	78	5	with	7	68.0	NA
137	25	22	M	Filler	78	5	the	8	83.0	NA
137	25	22	M	Filler	78	5	new	9	100.0	NA
137	25	22	M	Filler	78	5	stock.	10	100.0	NA
137	25	22	M	Question	78	5	NA	NA	1399.0	0
138	25	22	M	swets	17	2	The	1	229.0	NA
138	25	22	M	swets	17	2	bank	2	98.0	NA
138	25	22	M	swets	17	2	manager	3	67.0	NA
138	25	22	M	swets	17	2	of	4	100.0	NA
138	25	22	M	swets	17	2	the	5	235.0	NA
138	25	22	M	swets	17	2	heiress	6	132.0	NA
138	25	22	M	swets	17	2	who	7	66.0	NA
138	25	22	M	swets	17	2	bankrupted	8	334.0	NA
138	25	22	M	swets	17	2	herself	9	67.0	NA
138	25	22	M	swets	17	2	last	10	67.0	NA
138	25	22	M	swets	17	2	year	11	67.0	NA
138	25	22	M	swets	17	2	still	12	133.0	NA
138	25	22	M	swets	17	2	made	13	67.0	NA
138	25	22	M	swets	17	2	risky	14	265.0	NA
138	25	22	M	swets	17	2	investments.	15	68.0	NA
138	25	22	M	Question	17	2	NA	NA	1933.0	1
139	25	22	M	Filler	123	6	The	1	295.0	NA
139	25	22	M	Filler	123	6	student	2	67.0	NA
139	25	22	M	Filler	123	6	and	3	67.0	NA
139	25	22	M	Filler	123	6	professor	4	66.0	NA
139	25	22	M	Filler	123	6	went	5	133.0	NA
139	25	22	M	Filler	123	6	for	6	67.0	NA
139	25	22	M	Filler	123	6	a	7	83.0	NA
139	25	22	M	Filler	123	6	walk	8	67.0	NA
139	25	22	M	Filler	123	6	last	9	99.0	NA
139	25	22	M	Filler	123	6	Tuesday.	10	67.0	NA
139	25	22	M	Question	123	6	NA	NA	1000.0	1
140	25	22	M	Filler	68	4	The	1	361.0	NA
140	25	22	M	Filler	68	4	scientist	2	67.0	NA
140	25	22	M	Filler	68	4	published	3	65.0	NA
140	25	22	M	Filler	68	4	a	4	67.0	NA
140	25	22	M	Filler	68	4	paper	5	100.0	NA
140	25	22	M	Filler	68	4	in	6	67.0	NA
140	25	22	M	Filler	68	4	the	7	51.0	NA
140	25	22	M	Filler	68	4	journal	8	132.0	NA
140	25	22	M	Filler	68	4	of	9	66.0	NA
140	25	22	M	Filler	68	4	the	10	51.0	NA
140	25	22	M	Filler	68	4	foreign	11	100.0	NA
140	25	22	M	Filler	68	4	organization.	12	68.0	NA
140	25	22	M	Question	68	4	NA	NA	2648.0	1
141	25	22	M	Filler	143	7	The	1	499.0	NA
141	25	22	M	Filler	143	7	lawyer	2	399.0	NA
141	25	22	M	Filler	143	7	and	3	333.0	NA
141	25	22	M	Filler	143	7	defendant	4	367.0	NA
141	25	22	M	Filler	143	7	whispered	5	401.0	NA
141	25	22	M	Filler	143	7	furiously	6	332.0	NA
141	25	22	M	Filler	143	7	during	7	335.0	NA
141	25	22	M	Filler	143	7	the	8	316.0	NA
141	25	22	M	Filler	143	7	recess.	9	500.0	NA
141	25	22	M	Question	143	7	NA	NA	2868.0	0
142	25	22	M	Filler	136	7	While	1	362.0	NA
142	25	22	M	Filler	136	7	Mark	2	167.0	NA
142	25	22	M	Filler	136	7	and	3	101.0	NA
142	25	22	M	Filler	136	7	Jenny	4	67.0	NA
142	25	22	M	Filler	136	7	were	5	82.0	NA
142	25	22	M	Filler	136	7	cuddling	6	68.0	NA
142	25	22	M	Filler	136	7	the	7	98.0	NA
142	25	22	M	Filler	136	7	older	8	69.0	NA
142	25	22	M	Filler	136	7	dogs	9	99.0	NA
142	25	22	M	Filler	136	7	the	10	151.0	NA
142	25	22	M	Filler	136	7	puppies	11	99.0	NA
142	25	22	M	Filler	136	7	nipped	12	101.0	NA
142	25	22	M	Filler	136	7	at	13	116.0	NA
142	25	22	M	Filler	136	7	their	14	133.0	NA
142	25	22	M	Filler	136	7	feet.	15	100.0	NA
142	25	22	M	Question	136	7	NA	NA	3383.0	1
143	25	22	M	Filler	96	5	The	1	362.0	NA
143	25	22	M	Filler	96	5	evil	2	134.0	NA
143	25	22	M	Filler	96	5	man	3	149.0	NA
143	25	22	M	Filler	96	5	watched	4	101.0	NA
143	25	22	M	Filler	96	5	the	5	150.0	NA
143	25	22	M	Filler	96	5	doorway	6	133.0	NA
143	25	22	M	Filler	96	5	of	7	101.0	NA
143	25	22	M	Filler	96	5	the	8	166.0	NA
143	25	22	M	Filler	96	5	bar	9	134.0	NA
143	25	22	M	Filler	96	5	every	10	100.0	NA
143	25	22	M	Filler	96	5	Friday	11	133.0	NA
143	25	22	M	Filler	96	5	night.	12	100.0	NA
143	25	22	M	Question	96	5	NA	NA	883.0	1
