trial	subj	age	gender	stimulustype	item	condition	word	position	rt	correct
0	26	20	M	Filler	58	4	The	1	712.0	NA
0	26	20	M	Filler	58	4	white	2	250.0	NA
0	26	20	M	Filler	58	4	dog	3	185.0	NA
0	26	20	M	Filler	58	4	bit	4	216.0	NA
0	26	20	M	Filler	58	4	the	5	200.0	NA
0	26	20	M	Filler	58	4	ankle	6	202.0	NA
0	26	20	M	Filler	58	4	of	7	218.0	NA
0	26	20	M	Filler	58	4	the	8	234.0	NA
0	26	20	M	Filler	58	4	child.	9	184.0	NA
0	26	20	M	Question	58	4	NA	NA	1167.0	1
1	26	20	M	swets	33	1	The	1	161.0	NA
1	26	20	M	swets	33	1	butler	2	250.0	NA
1	26	20	M	swets	33	1	of	3	201.0	NA
1	26	20	M	swets	33	1	the	4	200.0	NA
1	26	20	M	swets	33	1	actor	5	216.0	NA
1	26	20	M	swets	33	1	who	6	286.0	NA
1	26	20	M	swets	33	1	did	7	165.0	NA
1	26	20	M	swets	33	1	not	8	152.0	NA
1	26	20	M	swets	33	1	like	9	182.0	NA
1	26	20	M	swets	33	1	himself	10	201.0	NA
1	26	20	M	swets	33	1	very	11	216.0	NA
1	26	20	M	swets	33	1	much	12	216.0	NA
1	26	20	M	swets	33	1	caught	13	301.0	NA
1	26	20	M	swets	33	1	the	14	319.0	NA
1	26	20	M	swets	33	1	armed	15	248.0	NA
1	26	20	M	swets	33	1	robber.	16	249.0	NA
1	26	20	M	Question	33	1	NA	NA	3554.0	0
2	26	20	M	Filler	39	4	The	1	279.0	NA
2	26	20	M	Filler	39	4	overweight	2	231.0	NA
2	26	20	M	Filler	39	4	aunt	3	201.0	NA
2	26	20	M	Filler	39	4	decided	4	200.0	NA
2	26	20	M	Filler	39	4	to	5	219.0	NA
2	26	20	M	Filler	39	4	make	6	183.0	NA
2	26	20	M	Filler	39	4	cookies	7	199.0	NA
2	26	20	M	Filler	39	4	and	8	202.0	NA
2	26	20	M	Filler	39	4	cupcakes	9	200.0	NA
2	26	20	M	Filler	39	4	for	10	184.0	NA
2	26	20	M	Filler	39	4	the	11	183.0	NA
2	26	20	M	Filler	39	4	dinner	12	233.0	NA
2	26	20	M	Filler	39	4	party.	13	232.0	NA
2	26	20	M	Question	39	4	NA	NA	1069.0	1
3	26	20	M	Filler	56	4	The	1	328.0	NA
3	26	20	M	Filler	56	4	actor	2	268.0	NA
3	26	20	M	Filler	56	4	said	3	216.0	NA
3	26	20	M	Filler	56	4	the	4	233.0	NA
3	26	20	M	Filler	56	4	audiences	5	183.0	NA
3	26	20	M	Filler	56	4	believed	6	251.0	NA
3	26	20	M	Filler	56	4	the	7	199.0	NA
3	26	20	M	Filler	56	4	nasty	8	182.0	NA
3	26	20	M	Filler	56	4	remarks	9	236.0	NA
3	26	20	M	Filler	56	4	made	10	200.0	NA
3	26	20	M	Filler	56	4	by	11	217.0	NA
3	26	20	M	Filler	56	4	the	12	266.0	NA
3	26	20	M	Filler	56	4	film	13	234.0	NA
3	26	20	M	Filler	56	4	critic.	14	485.0	NA
3	26	20	M	Question	56	4	NA	NA	2300.0	1
4	26	20	M	Filler	78	5	The	1	329.0	NA
4	26	20	M	Filler	78	5	customer	2	217.0	NA
4	26	20	M	Filler	78	5	complimented	3	186.0	NA
4	26	20	M	Filler	78	5	the	4	215.0	NA
4	26	20	M	Filler	78	5	store	5	216.0	NA
4	26	20	M	Filler	78	5	keeper	6	184.0	NA
4	26	20	M	Filler	78	5	with	7	181.0	NA
4	26	20	M	Filler	78	5	the	8	185.0	NA
4	26	20	M	Filler	78	5	new	9	184.0	NA
4	26	20	M	Filler	78	5	stock.	10	182.0	NA
4	26	20	M	Question	78	5	NA	NA	2067.0	1
5	26	20	M	swets	1	2	The	1	262.0	NA
5	26	20	M	swets	1	2	brother	2	249.0	NA
5	26	20	M	swets	1	2	of	3	215.0	NA
5	26	20	M	swets	1	2	the	4	353.0	NA
5	26	20	M	swets	1	2	actress	5	266.0	NA
5	26	20	M	swets	1	2	who	6	284.0	NA
5	26	20	M	swets	1	2	called	7	298.0	NA
5	26	20	M	swets	1	2	attention	8	269.0	NA
5	26	20	M	swets	1	2	to	9	300.0	NA
5	26	20	M	swets	1	2	herself	10	299.0	NA
5	26	20	M	swets	1	2	on	11	301.0	NA
5	26	20	M	swets	1	2	the	12	268.0	NA
5	26	20	M	swets	1	2	balcony	13	281.0	NA
5	26	20	M	swets	1	2	was	14	269.0	NA
5	26	20	M	swets	1	2	under	15	266.0	NA
5	26	20	M	swets	1	2	investigation.	16	267.0	NA
5	26	20	M	Question	1	2	NA	NA	1901.0	0
6	26	20	M	Filler	61	4	The	1	2580.0	NA
6	26	20	M	Filler	61	4	lemon	2	250.0	NA
6	26	20	M	Filler	61	4	squirted	3	250.0	NA
6	26	20	M	Filler	61	4	into	4	234.0	NA
6	26	20	M	Filler	61	4	the	5	217.0	NA
6	26	20	M	Filler	61	4	debutante's	6	216.0	NA
6	26	20	M	Filler	61	4	eye	7	217.0	NA
6	26	20	M	Filler	61	4	as	8	219.0	NA
6	26	20	M	Filler	61	4	she	9	248.0	NA
6	26	20	M	Filler	61	4	tried	10	217.0	NA
6	26	20	M	Filler	61	4	to	11	217.0	NA
6	26	20	M	Filler	61	4	impress	12	232.0	NA
6	26	20	M	Filler	61	4	her	13	218.0	NA
6	26	20	M	Filler	61	4	mother's	14	218.0	NA
6	26	20	M	Filler	61	4	society	15	315.0	NA
6	26	20	M	Filler	61	4	friends.	16	300.0	NA
6	26	20	M	Question	61	4	NA	NA	1601.0	1
7	26	20	M	Filler	80	5	The	1	444.0	NA
7	26	20	M	Filler	80	5	stepfather	2	251.0	NA
7	26	20	M	Filler	80	5	of	3	233.0	NA
7	26	20	M	Filler	80	5	the	4	217.0	NA
7	26	20	M	Filler	80	5	nun	5	215.0	NA
7	26	20	M	Filler	80	5	with	6	234.0	NA
7	26	20	M	Filler	80	5	a	7	235.0	NA
7	26	20	M	Filler	80	5	long	8	232.0	NA
7	26	20	M	Filler	80	5	white	9	233.0	NA
7	26	20	M	Filler	80	5	beard	10	234.0	NA
7	26	20	M	Filler	80	5	became	11	200.0	NA
7	26	20	M	Filler	80	5	very	12	220.0	NA
7	26	20	M	Filler	80	5	ill.	13	231.0	NA
7	26	20	M	Question	80	5	NA	NA	1376.0	1
8	26	20	M	Filler	113	6	While	1	61.0	NA
8	26	20	M	Filler	113	6	Noah	2	300.0	NA
8	26	20	M	Filler	113	6	was	3	268.0	NA
8	26	20	M	Filler	113	6	waking	4	366.0	NA
8	26	20	M	Filler	113	6	up	5	252.0	NA
8	26	20	M	Filler	113	6	the	6	266.0	NA
8	26	20	M	Filler	113	6	man	7	252.0	NA
8	26	20	M	Filler	113	6	the	8	249.0	NA
8	26	20	M	Filler	113	6	neighbor	9	249.0	NA
8	26	20	M	Filler	113	6	coughed	10	251.0	NA
8	26	20	M	Filler	113	6	loudly.	11	233.0	NA
8	26	20	M	Question	113	6	NA	NA	1002.0	1
9	26	20	M	swets	36	1	The	1	548.0	NA
9	26	20	M	swets	36	1	daughter	2	283.0	NA
9	26	20	M	swets	36	1	of	3	217.0	NA
9	26	20	M	swets	36	1	the	4	216.0	NA
9	26	20	M	swets	36	1	saleswoman	5	235.0	NA
9	26	20	M	swets	36	1	who	6	249.0	NA
9	26	20	M	swets	36	1	talked	7	367.0	NA
9	26	20	M	swets	36	1	to	8	268.0	NA
9	26	20	M	swets	36	1	herself	9	233.0	NA
9	26	20	M	swets	36	1	all	10	199.0	NA
9	26	20	M	swets	36	1	the	11	250.0	NA
9	26	20	M	swets	36	1	time	12	199.0	NA
9	26	20	M	swets	36	1	walked	13	251.0	NA
9	26	20	M	swets	36	1	into	14	203.0	NA
9	26	20	M	swets	36	1	the	15	247.0	NA
9	26	20	M	swets	36	1	room.	16	234.0	NA
9	26	20	M	Question	36	1	NA	NA	4101.0	0
10	26	20	M	Filler	68	4	The	1	513.0	NA
10	26	20	M	Filler	68	4	scientist	2	466.0	NA
10	26	20	M	Filler	68	4	published	3	401.0	NA
10	26	20	M	Filler	68	4	a	4	334.0	NA
10	26	20	M	Filler	68	4	paper	5	332.0	NA
10	26	20	M	Filler	68	4	in	6	266.0	NA
10	26	20	M	Filler	68	4	the	7	218.0	NA
10	26	20	M	Filler	68	4	journal	8	233.0	NA
10	26	20	M	Filler	68	4	of	9	319.0	NA
10	26	20	M	Filler	68	4	the	10	366.0	NA
10	26	20	M	Filler	68	4	foreign	11	416.0	NA
10	26	20	M	Filler	68	4	organization.	12	836.0	NA
10	26	20	M	Question	68	4	NA	NA	3152.0	1
11	26	20	M	Filler	111	6	While	1	445.0	NA
11	26	20	M	Filler	111	6	the	2	234.0	NA
11	26	20	M	Filler	111	6	clown	3	184.0	NA
11	26	20	M	Filler	111	6	juggled	4	181.0	NA
11	26	20	M	Filler	111	6	the	5	200.0	NA
11	26	20	M	Filler	111	6	balls	6	201.0	NA
11	26	20	M	Filler	111	6	fell	7	153.0	NA
11	26	20	M	Filler	111	6	to	8	181.0	NA
11	26	20	M	Filler	111	6	the	9	184.0	NA
11	26	20	M	Filler	111	6	ground.	10	168.0	NA
11	26	20	M	Question	111	6	NA	NA	1001.0	1
12	26	20	M	Filler	42	4	After	1	447.0	NA
12	26	20	M	Filler	42	4	dinner	2	266.0	NA
12	26	20	M	Filler	42	4	the	3	217.0	NA
12	26	20	M	Filler	42	4	children	4	200.0	NA
12	26	20	M	Filler	42	4	gathered	5	214.0	NA
12	26	20	M	Filler	42	4	in	6	185.0	NA
12	26	20	M	Filler	42	4	a	7	268.0	NA
12	26	20	M	Filler	42	4	circle	8	235.0	NA
12	26	20	M	Filler	42	4	to	9	284.0	NA
12	26	20	M	Filler	42	4	listen	10	283.0	NA
12	26	20	M	Filler	42	4	to	11	233.0	NA
12	26	20	M	Filler	42	4	their	12	249.0	NA
12	26	20	M	Filler	42	4	grandmother's	13	234.0	NA
12	26	20	M	Filler	42	4	stories	14	350.0	NA
12	26	20	M	Filler	42	4	about	15	250.0	NA
12	26	20	M	Filler	42	4	the	16	282.0	NA
12	26	20	M	Filler	42	4	good	17	252.0	NA
12	26	20	M	Filler	42	4	old	18	251.0	NA
12	26	20	M	Filler	42	4	days.	19	251.0	NA
12	26	20	M	Question	42	4	NA	NA	1367.0	1
13	26	20	M	swets	23	3	The	1	712.0	NA
13	26	20	M	swets	23	3	father	2	335.0	NA
13	26	20	M	swets	23	3	of	3	198.0	NA
13	26	20	M	swets	23	3	the	4	185.0	NA
13	26	20	M	swets	23	3	ballerina	5	184.0	NA
13	26	20	M	swets	23	3	who	6	250.0	NA
13	26	20	M	swets	23	3	found	7	168.0	NA
13	26	20	M	swets	23	3	himself	8	200.0	NA
13	26	20	M	swets	23	3	in	9	217.0	NA
13	26	20	M	swets	23	3	a	10	201.0	NA
13	26	20	M	swets	23	3	lot	11	249.0	NA
13	26	20	M	swets	23	3	of	12	200.0	NA
13	26	20	M	swets	23	3	trouble	13	200.0	NA
13	26	20	M	swets	23	3	phoned	14	218.0	NA
13	26	20	M	swets	23	3	the	15	267.0	NA
13	26	20	M	swets	23	3	police.	16	216.0	NA
13	26	20	M	Question	23	3	NA	NA	1550.0	1
14	26	20	M	Filler	116	6	As	1	1161.0	NA
14	26	20	M	Filler	116	6	the	2	251.0	NA
14	26	20	M	Filler	116	6	survivors	3	199.0	NA
14	26	20	M	Filler	116	6	were	4	201.0	NA
14	26	20	M	Filler	116	6	embracing	5	215.0	NA
14	26	20	M	Filler	116	6	the	6	218.0	NA
14	26	20	M	Filler	116	6	firefighter	7	249.0	NA
14	26	20	M	Filler	116	6	coughed	8	218.0	NA
14	26	20	M	Filler	116	6	violently.	9	249.0	NA
14	26	20	M	Question	116	6	NA	NA	1269.0	1
15	26	20	M	Filler	138	7	While	1	346.0	NA
15	26	20	M	Filler	138	7	Pedro	2	184.0	NA
15	26	20	M	Filler	138	7	was	3	184.0	NA
15	26	20	M	Filler	138	7	swimming	4	215.0	NA
15	26	20	M	Filler	138	7	the	5	233.0	NA
15	26	20	M	Filler	138	7	lifeguard	6	217.0	NA
15	26	20	M	Filler	138	7	sat	7	185.0	NA
15	26	20	M	Filler	138	7	in	8	535.0	NA
15	26	20	M	Filler	138	7	his	9	216.0	NA
15	26	20	M	Filler	138	7	chair.	10	351.0	NA
15	26	20	M	Question	138	7	NA	NA	1066.0	0
16	26	20	M	swets	22	2	The	1	313.0	NA
16	26	20	M	swets	22	2	niece	2	183.0	NA
16	26	20	M	swets	22	2	of	3	199.0	NA
16	26	20	M	swets	22	2	the	4	185.0	NA
16	26	20	M	swets	22	2	commander	5	169.0	NA
16	26	20	M	swets	22	2	who	6	184.0	NA
16	26	20	M	swets	22	2	calmed	7	198.0	NA
16	26	20	M	swets	22	2	himself	8	133.0	NA
16	26	20	M	swets	22	2	after	9	151.0	NA
16	26	20	M	swets	22	2	the	10	149.0	NA
16	26	20	M	swets	22	2	tragedy	11	199.0	NA
16	26	20	M	swets	22	2	was	12	218.0	NA
16	26	20	M	swets	22	2	waiting	13	183.0	NA
16	26	20	M	swets	22	2	for	14	248.0	NA
16	26	20	M	swets	22	2	the	15	250.0	NA
16	26	20	M	swets	22	2	doctor.	16	251.0	NA
16	26	20	M	Question	22	2	NA	NA	1655.0	1
17	26	20	M	Filler	65	4	Even	1	577.0	NA
17	26	20	M	Filler	65	4	though	2	169.0	NA
17	26	20	M	Filler	65	4	the	3	183.0	NA
17	26	20	M	Filler	65	4	goalie	4	168.0	NA
17	26	20	M	Filler	65	4	had	5	148.0	NA
17	26	20	M	Filler	65	4	a	6	234.0	NA
17	26	20	M	Filler	65	4	bad	7	184.0	NA
17	26	20	M	Filler	65	4	cold	8	181.0	NA
17	26	20	M	Filler	65	4	the	9	201.0	NA
17	26	20	M	Filler	65	4	team	10	220.0	NA
17	26	20	M	Filler	65	4	was	11	200.0	NA
17	26	20	M	Filler	65	4	preparing	12	164.0	NA
17	26	20	M	Filler	65	4	for	13	417.0	NA
17	26	20	M	Filler	65	4	the	14	384.0	NA
17	26	20	M	Filler	65	4	tournament.	15	615.0	NA
17	26	20	M	Question	65	4	NA	NA	936.0	1
18	26	20	M	Filler	60	4	The	1	228.0	NA
18	26	20	M	Filler	60	4	newlyweds	2	100.0	NA
18	26	20	M	Filler	60	4	were	3	133.0	NA
18	26	20	M	Filler	60	4	nervous	4	115.0	NA
18	26	20	M	Filler	60	4	about	5	118.0	NA
18	26	20	M	Filler	60	4	their	6	149.0	NA
18	26	20	M	Filler	60	4	new	7	169.0	NA
18	26	20	M	Filler	60	4	life	8	282.0	NA
18	26	20	M	Filler	60	4	together.	9	184.0	NA
18	26	20	M	Question	60	4	NA	NA	1532.0	1
19	26	20	M	swets	7	2	The	1	245.0	NA
19	26	20	M	swets	7	2	nephew	2	99.0	NA
19	26	20	M	swets	7	2	of	3	101.0	NA
19	26	20	M	swets	7	2	the	4	67.0	NA
19	26	20	M	swets	7	2	waitress	5	131.0	NA
19	26	20	M	swets	7	2	who	6	85.0	NA
19	26	20	M	swets	7	2	hurt	7	134.0	NA
19	26	20	M	swets	7	2	herself	8	99.0	NA
19	26	20	M	swets	7	2	on	9	233.0	NA
19	26	20	M	swets	7	2	the	10	202.0	NA
19	26	20	M	swets	7	2	bicycle	11	166.0	NA
19	26	20	M	swets	7	2	was	12	115.0	NA
19	26	20	M	swets	7	2	angry	13	183.0	NA
19	26	20	M	swets	7	2	about	14	169.0	NA
19	26	20	M	swets	7	2	the	15	216.0	NA
19	26	20	M	swets	7	2	incident.	16	151.0	NA
19	26	20	M	Question	7	2	NA	NA	2235.0	1
20	26	20	M	Filler	69	4	The	1	312.0	NA
20	26	20	M	Filler	69	4	tiny	2	99.0	NA
20	26	20	M	Filler	69	4	child	3	103.0	NA
20	26	20	M	Filler	69	4	rolled	4	116.0	NA
20	26	20	M	Filler	69	4	the	5	148.0	NA
20	26	20	M	Filler	69	4	piece	6	418.0	NA
20	26	20	M	Filler	69	4	of	7	136.0	NA
20	26	20	M	Filler	69	4	the	8	150.0	NA
20	26	20	M	Filler	69	4	toy	9	197.0	NA
20	26	20	M	Filler	69	4	into	10	203.0	NA
20	26	20	M	Filler	69	4	the	11	250.0	NA
20	26	20	M	Filler	69	4	next	12	233.0	NA
20	26	20	M	Filler	69	4	room	13	300.0	NA
20	26	20	M	Filler	69	4	after	14	233.0	NA
20	26	20	M	Filler	69	4	it	15	218.0	NA
20	26	20	M	Filler	69	4	broke	16	250.0	NA
20	26	20	M	Filler	69	4	off.	17	267.0	NA
20	26	20	M	Question	69	4	NA	NA	2370.0	1
21	26	20	M	Filler	121	6	The	1	448.0	NA
21	26	20	M	Filler	121	6	ecologist	2	298.0	NA
21	26	20	M	Filler	121	6	wondered	3	252.0	NA
21	26	20	M	Filler	121	6	which	4	199.0	NA
21	26	20	M	Filler	121	6	plants	5	185.0	NA
21	26	20	M	Filler	121	6	the	6	198.0	NA
21	26	20	M	Filler	121	6	scientist	7	186.0	NA
21	26	20	M	Filler	121	6	grew	8	199.0	NA
21	26	20	M	Filler	121	6	but	9	183.0	NA
21	26	20	M	Filler	121	6	didn't	10	199.0	NA
21	26	20	M	Filler	121	6	modify	11	203.0	NA
21	26	20	M	Filler	121	6	the	12	197.0	NA
21	26	20	M	Filler	121	6	seeds	13	185.0	NA
21	26	20	M	Filler	121	6	of	14	200.0	NA
21	26	20	M	Filler	121	6	in	15	183.0	NA
21	26	20	M	Filler	121	6	the	16	135.0	NA
21	26	20	M	Filler	121	6	lab.	17	182.0	NA
21	26	20	M	Question	121	6	NA	NA	2271.0	1
22	26	20	M	swets	4	2	The	1	445.0	NA
22	26	20	M	swets	4	2	father	2	184.0	NA
22	26	20	M	swets	4	2	of	3	199.0	NA
22	26	20	M	swets	4	2	the	4	202.0	NA
22	26	20	M	swets	4	2	bride	5	200.0	NA
22	26	20	M	swets	4	2	who	6	184.0	NA
22	26	20	M	swets	4	2	embarrassed	7	216.0	NA
22	26	20	M	swets	4	2	herself	8	318.0	NA
22	26	20	M	swets	4	2	at	9	183.0	NA
22	26	20	M	swets	4	2	the	10	205.0	NA
22	26	20	M	swets	4	2	reception	11	210.0	NA
22	26	20	M	swets	4	2	was	12	185.0	NA
22	26	20	M	swets	4	2	complaining	13	184.0	NA
22	26	20	M	swets	4	2	to	14	232.0	NA
22	26	20	M	swets	4	2	the	15	200.0	NA
22	26	20	M	swets	4	2	priest.	16	202.0	NA
22	26	20	M	Question	4	2	NA	NA	999.0	1
23	26	20	M	Filler	88	5	The	1	445.0	NA
23	26	20	M	Filler	88	5	woman's	2	183.0	NA
23	26	20	M	Filler	88	5	posture	3	183.0	NA
23	26	20	M	Filler	88	5	began	4	199.0	NA
23	26	20	M	Filler	88	5	to	5	184.0	NA
23	26	20	M	Filler	88	5	go	6	184.0	NA
23	26	20	M	Filler	88	5	bad	7	199.0	NA
23	26	20	M	Filler	88	5	because	8	168.0	NA
23	26	20	M	Filler	88	5	of	9	199.0	NA
23	26	20	M	Filler	88	5	her	10	184.0	NA
23	26	20	M	Filler	88	5	constant	11	167.0	NA
23	26	20	M	Filler	88	5	slumping.	12	335.0	NA
23	26	20	M	Question	88	5	NA	NA	1568.0	1
24	26	20	M	Filler	67	4	The	1	427.0	NA
24	26	20	M	Filler	67	4	restaurant	2	218.0	NA
24	26	20	M	Filler	67	4	was	3	183.0	NA
24	26	20	M	Filler	67	4	famous	4	136.0	NA
24	26	20	M	Filler	67	4	for	5	198.0	NA
24	26	20	M	Filler	67	4	its	6	169.0	NA
24	26	20	M	Filler	67	4	French	7	184.0	NA
24	26	20	M	Filler	67	4	pastries	8	184.0	NA
24	26	20	M	Filler	67	4	and	9	133.0	NA
24	26	20	M	Filler	67	4	fine	10	234.0	NA
24	26	20	M	Filler	67	4	wines.	11	166.0	NA
24	26	20	M	Question	67	4	NA	NA	1935.0	1
25	26	20	M	Filler	105	5	The	1	863.0	NA
25	26	20	M	Filler	105	5	actors	2	182.0	NA
25	26	20	M	Filler	105	5	rehearsed	3	185.0	NA
25	26	20	M	Filler	105	5	the	4	198.0	NA
25	26	20	M	Filler	105	5	play	5	166.0	NA
25	26	20	M	Filler	105	5	so	6	183.0	NA
25	26	20	M	Filler	105	5	much	7	185.0	NA
25	26	20	M	Filler	105	5	that	8	167.0	NA
25	26	20	M	Filler	105	5	they	9	184.0	NA
25	26	20	M	Filler	105	5	became	10	165.0	NA
25	26	20	M	Filler	105	5	bored	11	167.0	NA
25	26	20	M	Filler	105	5	with	12	167.0	NA
25	26	20	M	Filler	105	5	it.	13	618.0	NA
25	26	20	M	Question	105	5	NA	NA	2286.0	1
26	26	20	M	Filler	141	7	The	1	228.0	NA
26	26	20	M	Filler	141	7	nurse	2	217.0	NA
26	26	20	M	Filler	141	7	and	3	183.0	NA
26	26	20	M	Filler	141	7	custodian	4	182.0	NA
26	26	20	M	Filler	141	7	chatted	5	189.0	NA
26	26	20	M	Filler	141	7	during	6	181.0	NA
26	26	20	M	Filler	141	7	their	7	184.0	NA
26	26	20	M	Filler	141	7	break.	8	168.0	NA
26	26	20	M	Question	141	7	NA	NA	2365.0	0
27	26	20	M	Filler	136	7	While	1	2248.0	NA
27	26	20	M	Filler	136	7	Mark	2	316.0	NA
27	26	20	M	Filler	136	7	and	3	251.0	NA
27	26	20	M	Filler	136	7	Jenny	4	215.0	NA
27	26	20	M	Filler	136	7	were	5	201.0	NA
27	26	20	M	Filler	136	7	cuddling	6	166.0	NA
27	26	20	M	Filler	136	7	the	7	168.0	NA
27	26	20	M	Filler	136	7	older	8	166.0	NA
27	26	20	M	Filler	136	7	dogs	9	202.0	NA
27	26	20	M	Filler	136	7	the	10	166.0	NA
27	26	20	M	Filler	136	7	puppies	11	217.0	NA
27	26	20	M	Filler	136	7	nipped	12	200.0	NA
27	26	20	M	Filler	136	7	at	13	202.0	NA
27	26	20	M	Filler	136	7	their	14	199.0	NA
27	26	20	M	Filler	136	7	feet.	15	317.0	NA
27	26	20	M	Question	136	7	NA	NA	1968.0	0
28	26	20	M	swets	16	2	The	1	428.0	NA
28	26	20	M	swets	16	2	widow	2	134.0	NA
28	26	20	M	swets	16	2	of	3	151.0	NA
28	26	20	M	swets	16	2	the	4	83.0	NA
28	26	20	M	swets	16	2	general	5	115.0	NA
28	26	20	M	swets	16	2	who	6	117.0	NA
28	26	20	M	swets	16	2	sacrificed	7	115.0	NA
28	26	20	M	swets	16	2	himself	8	100.0	NA
28	26	20	M	swets	16	2	for	9	102.0	NA
28	26	20	M	swets	16	2	the	10	99.0	NA
28	26	20	M	swets	16	2	cause	11	100.0	NA
28	26	20	M	swets	16	2	was	12	116.0	NA
28	26	20	M	swets	16	2	the	13	118.0	NA
28	26	20	M	swets	16	2	subject	14	132.0	NA
28	26	20	M	swets	16	2	of	15	119.0	NA
28	26	20	M	swets	16	2	the	16	433.0	NA
28	26	20	M	swets	16	2	biography.	17	283.0	NA
28	26	20	M	Question	16	2	NA	NA	1369.0	1
29	26	20	M	Filler	62	4	After	1	961.0	NA
29	26	20	M	Filler	62	4	much	2	302.0	NA
29	26	20	M	Filler	62	4	deliberation	3	149.0	NA
29	26	20	M	Filler	62	4	the	4	116.0	NA
29	26	20	M	Filler	62	4	jury	5	117.0	NA
29	26	20	M	Filler	62	4	found	6	100.0	NA
29	26	20	M	Filler	62	4	the	7	102.0	NA
29	26	20	M	Filler	62	4	defendant	8	100.0	NA
29	26	20	M	Filler	62	4	not	9	101.0	NA
29	26	20	M	Filler	62	4	guilty.	10	101.0	NA
29	26	20	M	Question	62	4	NA	NA	3700.0	1
30	26	20	M	Filler	100	5	There	1	612.0	NA
30	26	20	M	Filler	100	5	was	2	366.0	NA
30	26	20	M	Filler	100	5	a	3	319.0	NA
30	26	20	M	Filler	100	5	large	4	383.0	NA
30	26	20	M	Filler	100	5	sale	5	1082.0	NA
30	26	20	M	Filler	100	5	on	6	118.0	NA
30	26	20	M	Filler	100	5	stationary	7	266.0	NA
30	26	20	M	Filler	100	5	and	8	270.0	NA
30	26	20	M	Filler	100	5	office	9	635.0	NA
30	26	20	M	Filler	100	5	supplies	10	264.0	NA
30	26	20	M	Filler	100	5	at	11	350.0	NA
30	26	20	M	Filler	100	5	the	12	318.0	NA
30	26	20	M	Filler	100	5	student	13	250.0	NA
30	26	20	M	Filler	100	5	bookstore.	14	249.0	NA
30	26	20	M	Question	100	5	NA	NA	1534.0	1
31	26	20	M	swets	32	3	The	1	328.0	NA
31	26	20	M	swets	32	3	nephew	2	117.0	NA
31	26	20	M	swets	32	3	of	3	150.0	NA
31	26	20	M	swets	32	3	the	4	115.0	NA
31	26	20	M	swets	32	3	duchess	5	151.0	NA
31	26	20	M	swets	32	3	who	6	118.0	NA
31	26	20	M	swets	32	3	looked	7	167.0	NA
31	26	20	M	swets	32	3	at	8	132.0	NA
31	26	20	M	swets	32	3	himself	9	133.0	NA
31	26	20	M	swets	32	3	in	10	135.0	NA
31	26	20	M	swets	32	3	the	11	150.0	NA
31	26	20	M	swets	32	3	mirror	12	151.0	NA
31	26	20	M	swets	32	3	wore	13	150.0	NA
31	26	20	M	swets	32	3	a	14	133.0	NA
31	26	20	M	swets	32	3	blue	15	182.0	NA
31	26	20	M	swets	32	3	shirt.	16	133.0	NA
31	26	20	M	Question	32	3	NA	NA	2655.0	1
32	26	20	M	Filler	142	7	The	1	496.0	NA
32	26	20	M	Filler	142	7	cats	2	116.0	NA
32	26	20	M	Filler	142	7	and	3	119.0	NA
32	26	20	M	Filler	142	7	dogs	4	117.0	NA
32	26	20	M	Filler	142	7	glared	5	100.0	NA
32	26	20	M	Filler	142	7	at	6	82.0	NA
32	26	20	M	Filler	142	7	each	7	318.0	NA
32	26	20	M	Filler	142	7	other	8	116.0	NA
32	26	20	M	Filler	142	7	warily.	9	134.0	NA
32	26	20	M	Question	142	7	NA	NA	1401.0	1
33	26	20	M	swets	5	3	The	1	413.0	NA
33	26	20	M	swets	5	3	aunt	2	169.0	NA
33	26	20	M	swets	5	3	of	3	165.0	NA
33	26	20	M	swets	5	3	the	4	168.0	NA
33	26	20	M	swets	5	3	bishop	5	148.0	NA
33	26	20	M	swets	5	3	who	6	152.0	NA
33	26	20	M	swets	5	3	injured	7	182.0	NA
33	26	20	M	swets	5	3	herself	8	450.0	NA
33	26	20	M	swets	5	3	last	9	151.0	NA
33	26	20	M	swets	5	3	summer	10	100.0	NA
33	26	20	M	swets	5	3	was	11	185.0	NA
33	26	20	M	swets	5	3	concerned	12	165.0	NA
33	26	20	M	swets	5	3	about	13	252.0	NA
33	26	20	M	swets	5	3	the	14	198.0	NA
33	26	20	M	swets	5	3	infection.	15	101.0	NA
33	26	20	M	Question	5	3	NA	NA	1336.0	0
34	26	20	M	Filler	126	6	The	1	211.0	NA
34	26	20	M	Filler	126	6	boxes	2	134.0	NA
34	26	20	M	Filler	126	6	and	3	134.0	NA
34	26	20	M	Filler	126	6	hangers	4	117.0	NA
34	26	20	M	Filler	126	6	had	5	116.0	NA
34	26	20	M	Filler	126	6	been	6	132.0	NA
34	26	20	M	Filler	126	6	stuffed	7	201.0	NA
34	26	20	M	Filler	126	6	in	8	218.0	NA
34	26	20	M	Filler	126	6	the	9	1218.0	NA
34	26	20	M	Filler	126	6	closet.	10	184.0	NA
34	26	20	M	Question	126	6	NA	NA	1733.0	1
35	26	20	M	swets	20	3	The	1	430.0	NA
35	26	20	M	swets	20	3	sister	2	83.0	NA
35	26	20	M	swets	20	3	of	3	116.0	NA
35	26	20	M	swets	20	3	the	4	100.0	NA
35	26	20	M	swets	20	3	count	5	70.0	NA
35	26	20	M	swets	20	3	who	6	84.0	NA
35	26	20	M	swets	20	3	crippled	7	100.0	NA
35	26	20	M	swets	20	3	herself	8	117.0	NA
35	26	20	M	swets	20	3	by	9	167.0	NA
35	26	20	M	swets	20	3	falling	10	116.0	NA
35	26	20	M	swets	20	3	off	11	82.0	NA
35	26	20	M	swets	20	3	a	12	166.0	NA
35	26	20	M	swets	20	3	horse	13	152.0	NA
35	26	20	M	swets	20	3	took	14	116.0	NA
35	26	20	M	swets	20	3	a	15	116.0	NA
35	26	20	M	swets	20	3	long	16	150.0	NA
35	26	20	M	swets	20	3	time	17	101.0	NA
35	26	20	M	swets	20	3	to	18	217.0	NA
35	26	20	M	swets	20	3	get	19	281.0	NA
35	26	20	M	swets	20	3	over	20	301.0	NA
35	26	20	M	swets	20	3	it.	21	333.0	NA
35	26	20	M	Question	20	3	NA	NA	1904.0	0
36	26	20	M	Filler	55	4	The	1	261.0	NA
36	26	20	M	Filler	55	4	people	2	82.0	NA
36	26	20	M	Filler	55	4	certainly	3	102.0	NA
36	26	20	M	Filler	55	4	admired	4	116.0	NA
36	26	20	M	Filler	55	4	the	5	101.0	NA
36	26	20	M	Filler	55	4	wife	6	217.0	NA
36	26	20	M	Filler	55	4	of	7	151.0	NA
36	26	20	M	Filler	55	4	the	8	132.0	NA
36	26	20	M	Filler	55	4	janitor	9	218.0	NA
36	26	20	M	Filler	55	4	because	10	166.0	NA
36	26	20	M	Filler	55	4	she	11	133.0	NA
36	26	20	M	Filler	55	4	educated	12	168.0	NA
36	26	20	M	Filler	55	4	herself	13	150.0	NA
36	26	20	M	Filler	55	4	at	14	151.0	NA
36	26	20	M	Filler	55	4	night.	15	182.0	NA
36	26	20	M	Question	55	4	NA	NA	2702.0	1
37	26	20	M	Filler	114	6	While	1	262.0	NA
37	26	20	M	Filler	114	6	the	2	117.0	NA
37	26	20	M	Filler	114	6	winners	3	184.0	NA
37	26	20	M	Filler	114	6	were	4	300.0	NA
37	26	20	M	Filler	114	6	kissing	5	114.0	NA
37	26	20	M	Filler	114	6	the	6	119.0	NA
37	26	20	M	Filler	114	6	crowd	7	100.0	NA
37	26	20	M	Filler	114	6	cheered	8	100.0	NA
37	26	20	M	Filler	114	6	wildly.	9	134.0	NA
37	26	20	M	Question	114	6	NA	NA	1819.0	1
38	26	20	M	Filler	89	5	Jim	1	380.0	NA
38	26	20	M	Filler	89	5	watered	2	248.0	NA
38	26	20	M	Filler	89	5	the	3	167.0	NA
38	26	20	M	Filler	89	5	tropical	4	85.0	NA
38	26	20	M	Filler	89	5	plants	5	151.0	NA
38	26	20	M	Filler	89	5	of	6	116.0	NA
38	26	20	M	Filler	89	5	his	7	132.0	NA
38	26	20	M	Filler	89	5	neighbor	8	150.0	NA
38	26	20	M	Filler	89	5	because	9	117.0	NA
38	26	20	M	Filler	89	5	she	10	151.0	NA
38	26	20	M	Filler	89	5	had	11	166.0	NA
38	26	20	M	Filler	89	5	gone	12	99.0	NA
38	26	20	M	Filler	89	5	out	13	317.0	NA
38	26	20	M	Filler	89	5	of	14	234.0	NA
38	26	20	M	Filler	89	5	town	15	184.0	NA
38	26	20	M	Filler	89	5	for	16	267.0	NA
38	26	20	M	Filler	89	5	a	17	267.0	NA
38	26	20	M	Filler	89	5	few	18	201.0	NA
38	26	20	M	Filler	89	5	days.	19	231.0	NA
38	26	20	M	Question	89	5	NA	NA	1669.0	0
39	26	20	M	Filler	127	7	While	1	479.0	NA
39	26	20	M	Filler	127	7	Linda	2	417.0	NA
39	26	20	M	Filler	127	7	wrote	3	199.0	NA
39	26	20	M	Filler	127	7	the	4	266.0	NA
39	26	20	M	Filler	127	7	letter	5	233.0	NA
39	26	20	M	Filler	127	7	arrived	6	184.0	NA
39	26	20	M	Filler	127	7	from	7	218.0	NA
39	26	20	M	Filler	127	7	Chicago.	8	201.0	NA
39	26	20	M	Question	127	7	NA	NA	1466.0	0
40	26	20	M	swets	17	3	The	1	364.0	NA
40	26	20	M	swets	17	3	bank	2	131.0	NA
40	26	20	M	swets	17	3	manager	3	85.0	NA
40	26	20	M	swets	17	3	of	4	100.0	NA
40	26	20	M	swets	17	3	the	5	116.0	NA
40	26	20	M	swets	17	3	heiress	6	66.0	NA
40	26	20	M	swets	17	3	who	7	84.0	NA
40	26	20	M	swets	17	3	bankrupted	8	116.0	NA
40	26	20	M	swets	17	3	himself	9	132.0	NA
40	26	20	M	swets	17	3	last	10	86.0	NA
40	26	20	M	swets	17	3	year	11	99.0	NA
40	26	20	M	swets	17	3	still	12	116.0	NA
40	26	20	M	swets	17	3	made	13	84.0	NA
40	26	20	M	swets	17	3	risky	14	101.0	NA
40	26	20	M	swets	17	3	investments.	15	132.0	NA
40	26	20	M	Question	17	3	NA	NA	1685.0	0
41	26	20	M	Filler	123	6	The	1	296.0	NA
41	26	20	M	Filler	123	6	student	2	149.0	NA
41	26	20	M	Filler	123	6	and	3	134.0	NA
41	26	20	M	Filler	123	6	professor	4	83.0	NA
41	26	20	M	Filler	123	6	went	5	85.0	NA
41	26	20	M	Filler	123	6	for	6	100.0	NA
41	26	20	M	Filler	123	6	a	7	102.0	NA
41	26	20	M	Filler	123	6	walk	8	83.0	NA
41	26	20	M	Filler	123	6	last	9	64.0	NA
41	26	20	M	Filler	123	6	Tuesday.	10	100.0	NA
41	26	20	M	Question	123	6	NA	NA	969.0	1
42	26	20	M	Filler	97	5	The	1	246.0	NA
42	26	20	M	Filler	97	5	tall	2	100.0	NA
42	26	20	M	Filler	97	5	man	3	151.0	NA
42	26	20	M	Filler	97	5	laughed	4	98.0	NA
42	26	20	M	Filler	97	5	at	5	150.0	NA
42	26	20	M	Filler	97	5	the	6	134.0	NA
42	26	20	M	Filler	97	5	clumsy	7	134.0	NA
42	26	20	M	Filler	97	5	child	8	168.0	NA
42	26	20	M	Filler	97	5	who	9	199.0	NA
42	26	20	M	Filler	97	5	spilled	10	169.0	NA
42	26	20	M	Filler	97	5	the	11	166.0	NA
42	26	20	M	Filler	97	5	milk	12	166.0	NA
42	26	20	M	Filler	97	5	on	13	317.0	NA
42	26	20	M	Filler	97	5	himself.	14	217.0	NA
42	26	20	M	Question	97	5	NA	NA	968.0	1
43	26	20	M	Filler	120	6	Sarah	1	245.0	NA
43	26	20	M	Filler	120	6	won't	2	86.0	NA
43	26	20	M	Filler	120	6	reveal	3	132.0	NA
43	26	20	M	Filler	120	6	which	4	99.0	NA
43	26	20	M	Filler	120	6	race	5	119.0	NA
43	26	20	M	Filler	120	6	she	6	132.0	NA
43	26	20	M	Filler	120	6	won	7	151.0	NA
43	26	20	M	Filler	120	6	without	8	149.0	NA
43	26	20	M	Filler	120	6	entering	9	150.0	NA
43	26	20	M	Filler	120	6	the	10	84.0	NA
43	26	20	M	Filler	120	6	competition	11	151.0	NA
43	26	20	M	Filler	120	6	for	12	299.0	NA
43	26	20	M	Filler	120	6	officially.	13	149.0	NA
43	26	20	M	Question	120	6	NA	NA	967.0	1
44	26	20	M	Filler	98	5	The	1	446.0	NA
44	26	20	M	Filler	98	5	husband	2	49.0	NA
44	26	20	M	Filler	98	5	of	3	118.0	NA
44	26	20	M	Filler	98	5	the	4	81.0	NA
44	26	20	M	Filler	98	5	bestselling	5	85.0	NA
44	26	20	M	Filler	98	5	novelist	6	118.0	NA
44	26	20	M	Filler	98	5	was	7	132.0	NA
44	26	20	M	Filler	98	5	into	8	133.0	NA
44	26	20	M	Filler	98	5	collecting	9	132.0	NA
44	26	20	M	Filler	98	5	antiques.	10	151.0	NA
44	26	20	M	Question	98	5	NA	NA	2721.0	0
45	26	20	M	swets	27	1	The	1	262.0	NA
45	26	20	M	swets	27	1	brother	2	100.0	NA
45	26	20	M	swets	27	1	of	3	100.0	NA
45	26	20	M	swets	27	1	the	4	100.0	NA
45	26	20	M	swets	27	1	butcher	5	116.0	NA
45	26	20	M	swets	27	1	who	6	99.0	NA
45	26	20	M	swets	27	1	invited	7	150.0	NA
45	26	20	M	swets	27	1	himself	8	118.0	NA
45	26	20	M	swets	27	1	to	9	117.0	NA
45	26	20	M	swets	27	1	the	10	51.0	NA
45	26	20	M	swets	27	1	party	11	184.0	NA
45	26	20	M	swets	27	1	enjoyed	12	147.0	NA
45	26	20	M	swets	27	1	it	13	136.0	NA
45	26	20	M	swets	27	1	quite	14	218.0	NA
45	26	20	M	swets	27	1	a	15	116.0	NA
45	26	20	M	swets	27	1	bit.	16	151.0	NA
45	26	20	M	Question	27	1	NA	NA	2201.0	0
46	26	20	M	Filler	110	6	While	1	1516.0	NA
46	26	20	M	Filler	110	6	the	2	249.0	NA
46	26	20	M	Filler	110	6	lawyer	3	166.0	NA
46	26	20	M	Filler	110	6	was	4	133.0	NA
46	26	20	M	Filler	110	6	reading	5	167.0	NA
46	26	20	M	Filler	110	6	the	6	1101.0	NA
46	26	20	M	Filler	110	6	will	7	183.0	NA
46	26	20	M	Filler	110	6	the	8	416.0	NA
46	26	20	M	Filler	110	6	contract	9	317.0	NA
46	26	20	M	Filler	110	6	remained	10	2104.0	NA
46	26	20	M	Filler	110	6	on	11	164.0	NA
46	26	20	M	Filler	110	6	the	12	135.0	NA
46	26	20	M	Filler	110	6	desk.	13	151.0	NA
46	26	20	M	Question	110	6	NA	NA	1200.0	1
47	26	20	M	Filler	51	4	The	1	294.0	NA
47	26	20	M	Filler	51	4	students	2	117.0	NA
47	26	20	M	Filler	51	4	were	3	134.0	NA
47	26	20	M	Filler	51	4	in	4	115.0	NA
47	26	20	M	Filler	51	4	a	5	85.0	NA
47	26	20	M	Filler	51	4	frenzy	6	432.0	NA
47	26	20	M	Filler	51	4	because	7	101.0	NA
47	26	20	M	Filler	51	4	they	8	133.0	NA
47	26	20	M	Filler	51	4	wanted	9	102.0	NA
47	26	20	M	Filler	51	4	tickets	10	132.0	NA
47	26	20	M	Filler	51	4	for	11	118.0	NA
47	26	20	M	Filler	51	4	the	12	167.0	NA
47	26	20	M	Filler	51	4	game	13	83.0	NA
47	26	20	M	Filler	51	4	tonight.	14	134.0	NA
47	26	20	M	Question	51	4	NA	NA	5870.0	1
48	26	20	M	swets	12	1	The	1	580.0	NA
48	26	20	M	swets	12	1	maid	2	267.0	NA
48	26	20	M	swets	12	1	of	3	232.0	NA
48	26	20	M	swets	12	1	the	4	118.0	NA
48	26	20	M	swets	12	1	princess	5	148.0	NA
48	26	20	M	swets	12	1	who	6	218.0	NA
48	26	20	M	swets	12	1	scratched	7	184.0	NA
48	26	20	M	swets	12	1	herself	8	184.0	NA
48	26	20	M	swets	12	1	in	9	267.0	NA
48	26	20	M	swets	12	1	public	10	251.0	NA
48	26	20	M	swets	12	1	was	11	235.0	NA
48	26	20	M	swets	12	1	terribly	12	248.0	NA
48	26	20	M	swets	12	1	humiliated.	13	352.0	NA
48	26	20	M	Question	12	1	NA	NA	2400.0	0
49	26	20	M	Filler	43	4	The	1	363.0	NA
49	26	20	M	Filler	43	4	movie	2	151.0	NA
49	26	20	M	Filler	43	4	director	3	116.0	NA
49	26	20	M	Filler	43	4	refused	4	68.0	NA
49	26	20	M	Filler	43	4	to	5	116.0	NA
49	26	20	M	Filler	43	4	work	6	116.0	NA
49	26	20	M	Filler	43	4	with	7	82.0	NA
49	26	20	M	Filler	43	4	the	8	117.0	NA
49	26	20	M	Filler	43	4	producer	9	117.0	NA
49	26	20	M	Filler	43	4	again	10	117.0	NA
49	26	20	M	Filler	43	4	after	11	149.0	NA
49	26	20	M	Filler	43	4	winning	12	118.0	NA
49	26	20	M	Filler	43	4	the	13	117.0	NA
49	26	20	M	Filler	43	4	grand	14	100.0	NA
49	26	20	M	Filler	43	4	prize.	15	83.0	NA
49	26	20	M	Question	43	4	NA	NA	2303.0	1
50	26	20	M	Filler	77	5	Outside	1	262.0	NA
50	26	20	M	Filler	77	5	the	2	132.0	NA
50	26	20	M	Filler	77	5	courthouse	3	152.0	NA
50	26	20	M	Filler	77	5	the	4	134.0	NA
50	26	20	M	Filler	77	5	committee	5	117.0	NA
50	26	20	M	Filler	77	5	awarded	6	116.0	NA
50	26	20	M	Filler	77	5	a	7	117.0	NA
50	26	20	M	Filler	77	5	lifetime	8	115.0	NA
50	26	20	M	Filler	77	5	achievement	9	102.0	NA
50	26	20	M	Filler	77	5	prize	10	434.0	NA
50	26	20	M	Filler	77	5	to	11	147.0	NA
50	26	20	M	Filler	77	5	the	12	121.0	NA
50	26	20	M	Filler	77	5	creator	13	100.0	NA
50	26	20	M	Filler	77	5	of	14	184.0	NA
50	26	20	M	Filler	77	5	the	15	117.0	NA
50	26	20	M	Filler	77	5	sculpture.	16	166.0	NA
50	26	20	M	Question	77	5	NA	NA	1367.0	1
51	26	20	M	Filler	72	4	The	1	361.0	NA
51	26	20	M	Filler	72	4	secretaries	2	118.0	NA
51	26	20	M	Filler	72	4	couldn't	3	150.0	NA
51	26	20	M	Filler	72	4	break	4	68.0	NA
51	26	20	M	Filler	72	4	away	5	100.0	NA
51	26	20	M	Filler	72	4	from	6	136.0	NA
51	26	20	M	Filler	72	4	their	7	83.0	NA
51	26	20	M	Filler	72	4	habit	8	199.0	NA
51	26	20	M	Filler	72	4	of	9	252.0	NA
51	26	20	M	Filler	72	4	coffee	10	164.0	NA
51	26	20	M	Filler	72	4	and	11	101.0	NA
51	26	20	M	Filler	72	4	cigarettes	12	149.0	NA
51	26	20	M	Filler	72	4	during	13	101.0	NA
51	26	20	M	Filler	72	4	their	14	115.0	NA
51	26	20	M	Filler	72	4	breaks.	15	135.0	NA
51	26	20	M	Question	72	4	NA	NA	1534.0	1
52	26	20	M	swets	30	1	The	1	679.0	NA
52	26	20	M	swets	30	1	maid	2	150.0	NA
52	26	20	M	swets	30	1	of	3	116.0	NA
52	26	20	M	swets	30	1	the	4	134.0	NA
52	26	20	M	swets	30	1	baroness	5	99.0	NA
52	26	20	M	swets	30	1	who	6	133.0	NA
52	26	20	M	swets	30	1	prepared	7	100.0	NA
52	26	20	M	swets	30	1	herself	8	51.0	NA
52	26	20	M	swets	30	1	very	9	200.0	NA
52	26	20	M	swets	30	1	thoroughly	10	150.0	NA
52	26	20	M	swets	30	1	came	11	67.0	NA
52	26	20	M	swets	30	1	from	12	484.0	NA
52	26	20	M	swets	30	1	the	13	131.0	NA
52	26	20	M	swets	30	1	south.	14	101.0	NA
52	26	20	M	Question	30	1	NA	NA	2452.0	1
53	26	20	M	Filler	144	7	The	1	295.0	NA
53	26	20	M	Filler	144	7	apple	2	83.0	NA
53	26	20	M	Filler	144	7	and	3	218.0	NA
53	26	20	M	Filler	144	7	potato	4	149.0	NA
53	26	20	M	Filler	144	7	went	5	203.0	NA
53	26	20	M	Filler	144	7	rotten	6	150.0	NA
53	26	20	M	Filler	144	7	after	7	166.0	NA
53	26	20	M	Filler	144	7	a	8	149.0	NA
53	26	20	M	Filler	144	7	week.	9	135.0	NA
53	26	20	M	Question	144	7	NA	NA	1966.0	1
54	26	20	M	Filler	53	4	The	1	264.0	NA
54	26	20	M	Filler	53	4	clay	2	67.0	NA
54	26	20	M	Filler	53	4	pot	3	165.0	NA
54	26	20	M	Filler	53	4	was	4	136.0	NA
54	26	20	M	Filler	53	4	full	5	80.0	NA
54	26	20	M	Filler	53	4	of	6	102.0	NA
54	26	20	M	Filler	53	4	gold	7	98.0	NA
54	26	20	M	Filler	53	4	coins	8	117.0	NA
54	26	20	M	Filler	53	4	and	9	119.0	NA
54	26	20	M	Filler	53	4	the	10	114.0	NA
54	26	20	M	Filler	53	4	thief	11	102.0	NA
54	26	20	M	Filler	53	4	knew	12	99.0	NA
54	26	20	M	Filler	53	4	he	13	100.0	NA
54	26	20	M	Filler	53	4	had	14	133.0	NA
54	26	20	M	Filler	53	4	finally	15	118.0	NA
54	26	20	M	Filler	53	4	hit	16	132.0	NA
54	26	20	M	Filler	53	4	the	17	134.0	NA
54	26	20	M	Filler	53	4	jackpot.	18	133.0	NA
54	26	20	M	Question	53	4	NA	NA	1419.0	1
55	26	20	M	swets	6	1	The	1	279.0	NA
55	26	20	M	swets	6	1	brother	2	116.0	NA
55	26	20	M	swets	6	1	of	3	102.0	NA
55	26	20	M	swets	6	1	the	4	99.0	NA
55	26	20	M	swets	6	1	mayor	5	101.0	NA
55	26	20	M	swets	6	1	who	6	98.0	NA
55	26	20	M	swets	6	1	complimented	7	86.0	NA
55	26	20	M	swets	6	1	himself	8	216.0	NA
55	26	20	M	swets	6	1	constantly	9	132.0	NA
55	26	20	M	swets	6	1	was	10	185.0	NA
55	26	20	M	swets	6	1	bothered	11	165.0	NA
55	26	20	M	swets	6	1	by	12	150.0	NA
55	26	20	M	swets	6	1	the	13	102.0	NA
55	26	20	M	swets	6	1	reporter.	14	167.0	NA
55	26	20	M	Question	6	1	NA	NA	1934.0	0
56	26	20	M	Filler	50	4	The	1	346.0	NA
56	26	20	M	Filler	50	4	new	2	83.0	NA
56	26	20	M	Filler	50	4	language	3	134.0	NA
56	26	20	M	Filler	50	4	requirement	4	98.0	NA
56	26	20	M	Filler	50	4	made	5	219.0	NA
56	26	20	M	Filler	50	4	all	6	183.0	NA
56	26	20	M	Filler	50	4	the	7	150.0	NA
56	26	20	M	Filler	50	4	students	8	134.0	NA
56	26	20	M	Filler	50	4	say	9	132.0	NA
56	26	20	M	Filler	50	4	bad	10	120.0	NA
56	26	20	M	Filler	50	4	things	11	466.0	NA
56	26	20	M	Filler	50	4	about	12	148.0	NA
56	26	20	M	Filler	50	4	the	13	118.0	NA
56	26	20	M	Filler	50	4	dean	14	150.0	NA
56	26	20	M	Filler	50	4	of	15	134.0	NA
56	26	20	M	Filler	50	4	the	16	132.0	NA
56	26	20	M	Filler	50	4	college.	17	135.0	NA
56	26	20	M	Question	50	4	NA	NA	2053.0	1
57	26	20	M	Filler	73	5	My	1	444.0	NA
57	26	20	M	Filler	73	5	cousins	2	83.0	NA
57	26	20	M	Filler	73	5	admired	3	68.0	NA
57	26	20	M	Filler	73	5	the	4	133.0	NA
57	26	20	M	Filler	73	5	singer	5	98.0	NA
57	26	20	M	Filler	73	5	although	6	85.0	NA
57	26	20	M	Filler	73	5	she	7	284.0	NA
57	26	20	M	Filler	73	5	never	8	148.0	NA
57	26	20	M	Filler	73	5	became	9	101.0	NA
57	26	20	M	Filler	73	5	popular.	10	117.0	NA
57	26	20	M	Question	73	5	NA	NA	2352.0	0
58	26	20	M	Filler	139	7	Laurie	1	462.0	NA
58	26	20	M	Filler	139	7	asked	2	315.0	NA
58	26	20	M	Filler	139	7	which	3	185.0	NA
58	26	20	M	Filler	139	7	truck	4	216.0	NA
58	26	20	M	Filler	139	7	the	5	153.0	NA
58	26	20	M	Filler	139	7	dealership	6	199.0	NA
58	26	20	M	Filler	139	7	sold	7	152.0	NA
58	26	20	M	Filler	139	7	but	8	249.0	NA
58	26	20	M	Filler	139	7	didn't	9	167.0	NA
58	26	20	M	Filler	139	7	paint	10	165.0	NA
58	26	20	M	Filler	139	7	completely.	11	219.0	NA
58	26	20	M	Question	139	7	NA	NA	2000.0	0
59	26	20	M	Filler	40	4	The	1	1297.0	NA
59	26	20	M	Filler	40	4	boy's	2	83.0	NA
59	26	20	M	Filler	40	4	mother	3	133.0	NA
59	26	20	M	Filler	40	4	was	4	99.0	NA
59	26	20	M	Filler	40	4	very	5	68.0	NA
59	26	20	M	Filler	40	4	happy	6	149.0	NA
59	26	20	M	Filler	40	4	to	7	117.0	NA
59	26	20	M	Filler	40	4	see	8	101.0	NA
59	26	20	M	Filler	40	4	good	9	100.0	NA
59	26	20	M	Filler	40	4	grades	10	98.0	NA
59	26	20	M	Filler	40	4	on	11	116.0	NA
59	26	20	M	Filler	40	4	his	12	85.0	NA
59	26	20	M	Filler	40	4	report	13	114.0	NA
59	26	20	M	Filler	40	4	card.	14	185.0	NA
59	26	20	M	Question	40	4	NA	NA	1385.0	1
60	26	20	M	swets	11	3	The	1	229.0	NA
60	26	20	M	swets	11	3	mother	2	84.0	NA
60	26	20	M	swets	11	3	of	3	117.0	NA
60	26	20	M	swets	11	3	the	4	82.0	NA
60	26	20	M	swets	11	3	surgeon	5	101.0	NA
60	26	20	M	swets	11	3	who	6	115.0	NA
60	26	20	M	swets	11	3	made	7	84.0	NA
60	26	20	M	swets	11	3	a	8	116.0	NA
60	26	20	M	swets	11	3	fool	9	117.0	NA
60	26	20	M	swets	11	3	of	10	101.0	NA
60	26	20	M	swets	11	3	herself	11	132.0	NA
60	26	20	M	swets	11	3	at	12	135.0	NA
60	26	20	M	swets	11	3	the	13	334.0	NA
60	26	20	M	swets	11	3	party	14	102.0	NA
60	26	20	M	swets	11	3	was	15	116.0	NA
60	26	20	M	swets	11	3	greatly	16	68.0	NA
60	26	20	M	swets	11	3	embarrassed.	17	82.0	NA
60	26	20	M	Question	11	3	NA	NA	1701.0	1
61	26	20	M	Filler	106	5	On	1	279.0	NA
61	26	20	M	Filler	106	5	the	2	100.0	NA
61	26	20	M	Filler	106	5	last	3	116.0	NA
61	26	20	M	Filler	106	5	night	4	67.0	NA
61	26	20	M	Filler	106	5	of	5	117.0	NA
61	26	20	M	Filler	106	5	summer	6	115.0	NA
61	26	20	M	Filler	106	5	camp	7	101.0	NA
61	26	20	M	Filler	106	5	the	8	84.0	NA
61	26	20	M	Filler	106	5	counselors	9	167.0	NA
61	26	20	M	Filler	106	5	let	10	51.0	NA
61	26	20	M	Filler	106	5	the	11	115.0	NA
61	26	20	M	Filler	106	5	children	12	117.0	NA
61	26	20	M	Filler	106	5	stay	13	85.0	NA
61	26	20	M	Filler	106	5	up	14	134.0	NA
61	26	20	M	Filler	106	5	until	15	117.0	NA
61	26	20	M	Filler	106	5	midnight.	16	117.0	NA
61	26	20	M	Question	106	5	NA	NA	1399.0	1
62	26	20	M	Filler	63	4	The	1	314.0	NA
62	26	20	M	Filler	63	4	bride	2	116.0	NA
62	26	20	M	Filler	63	4	was	3	101.0	NA
62	26	20	M	Filler	63	4	devastated	4	115.0	NA
62	26	20	M	Filler	63	4	to	5	116.0	NA
62	26	20	M	Filler	63	4	lose	6	83.0	NA
62	26	20	M	Filler	63	4	her	7	154.0	NA
62	26	20	M	Filler	63	4	gold	8	100.0	NA
62	26	20	M	Filler	63	4	ring	9	101.0	NA
62	26	20	M	Filler	63	4	with	10	65.0	NA
62	26	20	M	Filler	63	4	a	11	151.0	NA
62	26	20	M	Filler	63	4	gleaming	12	99.0	NA
62	26	20	M	Filler	63	4	diamond	13	99.0	NA
62	26	20	M	Filler	63	4	in	14	149.0	NA
62	26	20	M	Filler	63	4	the	15	86.0	NA
62	26	20	M	Filler	63	4	middle.	16	148.0	NA
62	26	20	M	Question	63	4	NA	NA	1270.0	1
63	26	20	M	Filler	49	4	The	1	248.0	NA
63	26	20	M	Filler	49	4	construction	2	150.0	NA
63	26	20	M	Filler	49	4	worker	3	115.0	NA
63	26	20	M	Filler	49	4	sued	4	67.0	NA
63	26	20	M	Filler	49	4	the	5	116.0	NA
63	26	20	M	Filler	49	4	son	6	136.0	NA
63	26	20	M	Filler	49	4	of	7	99.0	NA
63	26	20	M	Filler	49	4	that	8	100.0	NA
63	26	20	M	Filler	49	4	greedy	9	116.0	NA
63	26	20	M	Filler	49	4	banker.	10	268.0	NA
63	26	20	M	Question	49	4	NA	NA	1099.0	0
64	26	20	M	Filler	119	6	Everybody	1	364.0	NA
64	26	20	M	Filler	119	6	is	2	67.0	NA
64	26	20	M	Filler	119	6	wondering	3	266.0	NA
64	26	20	M	Filler	119	6	which	4	84.0	NA
64	26	20	M	Filler	119	6	software	5	99.0	NA
64	26	20	M	Filler	119	6	Gary	6	68.0	NA
64	26	20	M	Filler	119	6	installed	7	81.0	NA
64	26	20	M	Filler	119	6	without	8	83.0	NA
64	26	20	M	Filler	119	6	buying	9	119.0	NA
64	26	20	M	Filler	119	6	last	10	131.0	NA
64	26	20	M	Filler	119	6	June.	11	118.0	NA
64	26	20	M	Question	119	6	NA	NA	1400.0	1
65	26	20	M	Filler	85	5	The	1	263.0	NA
65	26	20	M	Filler	85	5	college	2	83.0	NA
65	26	20	M	Filler	85	5	students	3	100.0	NA
65	26	20	M	Filler	85	5	were	4	83.0	NA
65	26	20	M	Filler	85	5	upset	5	101.0	NA
65	26	20	M	Filler	85	5	that	6	134.0	NA
65	26	20	M	Filler	85	5	they	7	100.0	NA
65	26	20	M	Filler	85	5	had	8	117.0	NA
65	26	20	M	Filler	85	5	an	9	150.0	NA
65	26	20	M	Filler	85	5	exam	10	149.0	NA
65	26	20	M	Filler	85	5	the	11	150.0	NA
65	26	20	M	Filler	85	5	next	12	299.0	NA
65	26	20	M	Filler	85	5	day.	13	117.0	NA
65	26	20	M	Question	85	5	NA	NA	2219.0	1
66	26	20	M	Filler	109	6	While	1	363.0	NA
66	26	20	M	Filler	109	6	the	2	297.0	NA
66	26	20	M	Filler	109	6	farmer	3	53.0	NA
66	26	20	M	Filler	109	6	steered	4	165.0	NA
66	26	20	M	Filler	109	6	the	5	1215.0	NA
66	26	20	M	Filler	109	6	truck	6	103.0	NA
66	26	20	M	Filler	109	6	the	7	84.0	NA
66	26	20	M	Filler	109	6	tractor	8	1033.0	NA
66	26	20	M	Filler	109	6	pulled	9	83.0	NA
66	26	20	M	Filler	109	6	the	10	402.0	NA
66	26	20	M	Filler	109	6	plough.	11	499.0	NA
66	26	20	M	Question	109	6	NA	NA	1734.0	1
67	26	20	M	Filler	64	4	Because	1	411.0	NA
67	26	20	M	Filler	64	4	a	2	35.0	NA
67	26	20	M	Filler	64	4	fire	3	116.0	NA
67	26	20	M	Filler	64	4	alarm	4	31.0	NA
67	26	20	M	Filler	64	4	interrupted	5	86.0	NA
67	26	20	M	Filler	64	4	the	6	114.0	NA
67	26	20	M	Filler	64	4	exam	7	19.0	NA
67	26	20	M	Filler	64	4	the	8	83.0	NA
67	26	20	M	Filler	64	4	scores	9	66.0	NA
67	26	20	M	Filler	64	4	were	10	134.0	NA
67	26	20	M	Filler	64	4	disqualified.	11	67.0	NA
67	26	20	M	Question	64	4	NA	NA	1734.0	0
68	26	20	M	Filler	101	5	The	1	530.0	NA
68	26	20	M	Filler	101	5	friendly	2	34.0	NA
68	26	20	M	Filler	101	5	woman	3	81.0	NA
68	26	20	M	Filler	101	5	was	4	84.0	NA
68	26	20	M	Filler	101	5	insulted	5	68.0	NA
68	26	20	M	Filler	101	5	by	6	49.0	NA
68	26	20	M	Filler	101	5	the	7	66.0	NA
68	26	20	M	Filler	101	5	rude	8	66.0	NA
68	26	20	M	Filler	101	5	stranger	9	151.0	NA
68	26	20	M	Filler	101	5	because	10	167.0	NA
68	26	20	M	Filler	101	5	he	11	49.0	NA
68	26	20	M	Filler	101	5	didn't	12	69.0	NA
68	26	20	M	Filler	101	5	smile	13	134.0	NA
68	26	20	M	Filler	101	5	at	14	147.0	NA
68	26	20	M	Filler	101	5	her.	15	136.0	NA
68	26	20	M	Question	101	5	NA	NA	1035.0	0
69	26	20	M	Filler	124	6	The	1	311.0	NA
69	26	20	M	Filler	124	6	mothers	2	84.0	NA
69	26	20	M	Filler	124	6	and	3	98.0	NA
69	26	20	M	Filler	124	6	teachers	4	84.0	NA
69	26	20	M	Filler	124	6	played	5	101.0	NA
69	26	20	M	Filler	124	6	tennis	6	67.0	NA
69	26	20	M	Filler	124	6	after	7	132.0	NA
69	26	20	M	Filler	124	6	the	8	118.0	NA
69	26	20	M	Filler	124	6	kids	9	115.0	NA
69	26	20	M	Filler	124	6	left.	10	101.0	NA
69	26	20	M	Question	124	6	NA	NA	870.0	1
70	26	20	M	Filler	59	4	The	1	429.0	NA
70	26	20	M	Filler	59	4	conductor	2	133.0	NA
70	26	20	M	Filler	59	4	of	3	116.0	NA
70	26	20	M	Filler	59	4	the	4	135.0	NA
70	26	20	M	Filler	59	4	orchestra	5	117.0	NA
70	26	20	M	Filler	59	4	with	6	99.0	NA
70	26	20	M	Filler	59	4	the	7	133.0	NA
70	26	20	M	Filler	59	4	bald	8	149.0	NA
70	26	20	M	Filler	59	4	head	9	183.0	NA
70	26	20	M	Filler	59	4	plays	10	167.0	NA
70	26	20	M	Filler	59	4	excellently.	11	101.0	NA
70	26	20	M	Question	59	4	NA	NA	1236.0	1
71	26	20	M	Filler	37	4	The	1	313.0	NA
71	26	20	M	Filler	37	4	party	2	150.0	NA
71	26	20	M	Filler	37	4	attracted	3	98.0	NA
71	26	20	M	Filler	37	4	the	4	117.0	NA
71	26	20	M	Filler	37	4	fraternity	5	101.0	NA
71	26	20	M	Filler	37	4	members	6	100.0	NA
71	26	20	M	Filler	37	4	whose	7	116.0	NA
71	26	20	M	Filler	37	4	house	8	118.0	NA
71	26	20	M	Filler	37	4	had	9	166.0	NA
71	26	20	M	Filler	37	4	been	10	117.0	NA
71	26	20	M	Filler	37	4	seized	11	134.0	NA
71	26	20	M	Filler	37	4	by	12	98.0	NA
71	26	20	M	Filler	37	4	drug	13	152.0	NA
71	26	20	M	Filler	37	4	agents.	14	166.0	NA
71	26	20	M	Question	37	4	NA	NA	2001.0	1
72	26	20	M	Filler	84	5	While	1	212.0	NA
72	26	20	M	Filler	84	5	talking	2	117.0	NA
72	26	20	M	Filler	84	5	to	3	119.0	NA
72	26	20	M	Filler	84	5	his	4	83.0	NA
72	26	20	M	Filler	84	5	sister	5	100.0	NA
72	26	20	M	Filler	84	5	the	6	167.0	NA
72	26	20	M	Filler	84	5	bishop	7	114.0	NA
72	26	20	M	Filler	84	5	with	8	134.0	NA
72	26	20	M	Filler	84	5	the	9	83.0	NA
72	26	20	M	Filler	84	5	funny	10	116.0	NA
72	26	20	M	Filler	84	5	eyebrows	11	69.0	NA
72	26	20	M	Filler	84	5	advocated	12	99.0	NA
72	26	20	M	Filler	84	5	strange	13	217.0	NA
72	26	20	M	Filler	84	5	beliefs.	14	150.0	NA
72	26	20	M	Question	84	5	NA	NA	1602.0	1
73	26	20	M	Filler	54	4	The	1	278.0	NA
73	26	20	M	Filler	54	4	video	2	65.0	NA
73	26	20	M	Filler	54	4	screen	3	83.0	NA
73	26	20	M	Filler	54	4	of	4	102.0	NA
73	26	20	M	Filler	54	4	the	5	116.0	NA
73	26	20	M	Filler	54	4	monitor	6	83.0	NA
73	26	20	M	Filler	54	4	made	7	101.0	NA
73	26	20	M	Filler	54	4	strange	8	116.0	NA
73	26	20	M	Filler	54	4	noises	9	351.0	NA
73	26	20	M	Filler	54	4	and	10	133.0	NA
73	26	20	M	Filler	54	4	started	11	82.0	NA
73	26	20	M	Filler	54	4	emitting	12	101.0	NA
73	26	20	M	Filler	54	4	strange	13	149.0	NA
73	26	20	M	Filler	54	4	flashes.	14	250.0	NA
73	26	20	M	Question	54	4	NA	NA	1319.0	1
74	26	20	M	swets	31	2	The	1	246.0	NA
74	26	20	M	swets	31	2	aunt	2	99.0	NA
74	26	20	M	swets	31	2	of	3	116.0	NA
74	26	20	M	swets	31	2	the	4	100.0	NA
74	26	20	M	swets	31	2	milkman	5	101.0	NA
74	26	20	M	swets	31	2	who	6	66.0	NA
74	26	20	M	swets	31	2	had	7	84.0	NA
74	26	20	M	swets	31	2	to	8	149.0	NA
74	26	20	M	swets	31	2	support	9	117.0	NA
74	26	20	M	swets	31	2	himself	10	100.0	NA
74	26	20	M	swets	31	2	with	11	100.0	NA
74	26	20	M	swets	31	2	a	12	167.0	NA
74	26	20	M	swets	31	2	low	13	334.0	NA
74	26	20	M	swets	31	2	income	14	101.0	NA
74	26	20	M	swets	31	2	liked	15	152.0	NA
74	26	20	M	swets	31	2	to	16	101.0	NA
74	26	20	M	swets	31	2	fish.	17	132.0	NA
74	26	20	M	Question	31	2	NA	NA	1750.0	1
75	26	20	M	Filler	91	5	The	1	1165.0	NA
75	26	20	M	Filler	91	5	workman	2	66.0	NA
75	26	20	M	Filler	91	5	dropped	3	83.0	NA
75	26	20	M	Filler	91	5	the	4	101.0	NA
75	26	20	M	Filler	91	5	assistant	5	115.0	NA
75	26	20	M	Filler	91	5	who	6	351.0	NA
75	26	20	M	Filler	91	5	complained	7	134.0	NA
75	26	20	M	Filler	91	5	bitterly	8	100.0	NA
75	26	20	M	Filler	91	5	onto	9	51.0	NA
75	26	20	M	Filler	91	5	a	10	84.0	NA
75	26	20	M	Filler	91	5	lower	11	117.0	NA
75	26	20	M	Filler	91	5	floor.	12	348.0	NA
75	26	20	M	Question	91	5	NA	NA	2020.0	0
76	26	20	M	Filler	129	7	While	1	261.0	NA
76	26	20	M	Filler	129	7	Scott	2	67.0	NA
76	26	20	M	Filler	129	7	vacuumed	3	85.0	NA
76	26	20	M	Filler	129	7	the	4	99.0	NA
76	26	20	M	Filler	129	7	carpet	5	85.0	NA
76	26	20	M	Filler	129	7	the	6	167.0	NA
76	26	20	M	Filler	129	7	drapes	7	100.0	NA
76	26	20	M	Filler	129	7	flapped	8	65.0	NA
76	26	20	M	Filler	129	7	in	9	384.0	NA
76	26	20	M	Filler	129	7	the	10	285.0	NA
76	26	20	M	Filler	129	7	breeze.	11	99.0	NA
76	26	20	M	Question	129	7	NA	NA	1318.0	0
77	26	20	M	swets	26	3	The	1	1213.0	NA
77	26	20	M	swets	26	3	grand-niece	2	167.0	NA
77	26	20	M	swets	26	3	of	3	167.0	NA
77	26	20	M	swets	26	3	the	4	213.0	NA
77	26	20	M	swets	26	3	admiral	5	184.0	NA
77	26	20	M	swets	26	3	who	6	169.0	NA
77	26	20	M	swets	26	3	wrote	7	167.0	NA
77	26	20	M	swets	26	3	herself	8	217.0	NA
77	26	20	M	swets	26	3	a	9	216.0	NA
77	26	20	M	swets	26	3	note	10	134.0	NA
77	26	20	M	swets	26	3	admired	11	132.0	NA
77	26	20	M	swets	26	3	sailors	12	167.0	NA
77	26	20	M	swets	26	3	very	13	119.0	NA
77	26	20	M	swets	26	3	much.	14	167.0	NA
77	26	20	M	Question	26	3	NA	NA	2853.0	1
78	26	20	M	Filler	102	5	The	1	362.0	NA
78	26	20	M	Filler	102	5	old	2	617.0	NA
78	26	20	M	Filler	102	5	man	3	68.0	NA
78	26	20	M	Filler	102	5	appeared	4	116.0	NA
78	26	20	M	Filler	102	5	to	5	65.0	NA
78	26	20	M	Filler	102	5	be	6	119.0	NA
78	26	20	M	Filler	102	5	upset	7	115.0	NA
78	26	20	M	Filler	102	5	by	8	101.0	NA
78	26	20	M	Filler	102	5	the	9	84.0	NA
78	26	20	M	Filler	102	5	teenager's	10	68.0	NA
78	26	20	M	Filler	102	5	ignorant	11	149.0	NA
78	26	20	M	Filler	102	5	remark.	12	51.0	NA
78	26	20	M	Question	102	5	NA	NA	1368.0	1
79	26	20	M	swets	3	1	The	1	362.0	NA
79	26	20	M	swets	3	1	partner	2	150.0	NA
79	26	20	M	swets	3	1	of	3	67.0	NA
79	26	20	M	swets	3	1	the	4	266.0	NA
79	26	20	M	swets	3	1	salesman	5	116.0	NA
79	26	20	M	swets	3	1	who	6	117.0	NA
79	26	20	M	swets	3	1	amused	7	101.0	NA
79	26	20	M	swets	3	1	himself	8	134.0	NA
79	26	20	M	swets	3	1	quite	9	117.0	NA
79	26	20	M	swets	3	1	a	10	151.0	NA
79	26	20	M	swets	3	1	bit	11	118.0	NA
79	26	20	M	swets	3	1	was	12	116.0	NA
79	26	20	M	swets	3	1	writing	13	167.0	NA
79	26	20	M	swets	3	1	a	14	116.0	NA
79	26	20	M	swets	3	1	letter	15	118.0	NA
79	26	20	M	swets	3	1	to	16	132.0	NA
79	26	20	M	swets	3	1	the	17	132.0	NA
79	26	20	M	swets	3	1	editor.	18	136.0	NA
79	26	20	M	Question	3	1	NA	NA	1250.0	1
80	26	20	M	Filler	94	5	After	1	346.0	NA
80	26	20	M	Filler	94	5	months	2	118.0	NA
80	26	20	M	Filler	94	5	of	3	102.0	NA
80	26	20	M	Filler	94	5	preparation	4	132.0	NA
80	26	20	M	Filler	94	5	the	5	116.0	NA
80	26	20	M	Filler	94	5	ballerina	6	151.0	NA
80	26	20	M	Filler	94	5	was	7	117.0	NA
80	26	20	M	Filler	94	5	getting	8	149.0	NA
80	26	20	M	Filler	94	5	ready	9	135.0	NA
80	26	20	M	Filler	94	5	for	10	149.0	NA
80	26	20	M	Filler	94	5	opening	11	184.0	NA
80	26	20	M	Filler	94	5	night.	12	166.0	NA
80	26	20	M	Question	94	5	NA	NA	3806.0	1
81	26	20	M	swets	34	2	The	1	277.0	NA
81	26	20	M	swets	34	2	waiter	2	183.0	NA
81	26	20	M	swets	34	2	of	3	102.0	NA
81	26	20	M	swets	34	2	the	4	83.0	NA
81	26	20	M	swets	34	2	woman	5	83.0	NA
81	26	20	M	swets	34	2	who	6	83.0	NA
81	26	20	M	swets	34	2	considered	7	84.0	NA
81	26	20	M	swets	34	2	herself	8	83.0	NA
81	26	20	M	swets	34	2	a	9	82.0	NA
81	26	20	M	swets	34	2	natural	10	83.0	NA
81	26	20	M	swets	34	2	beauty	11	151.0	NA
81	26	20	M	swets	34	2	spilled	12	52.0	NA
81	26	20	M	swets	34	2	the	13	100.0	NA
81	26	20	M	swets	34	2	drinks.	14	67.0	NA
81	26	20	M	Question	34	2	NA	NA	1701.0	1
82	26	20	M	Filler	74	5	My	1	246.0	NA
82	26	20	M	Filler	74	5	former	2	84.0	NA
82	26	20	M	Filler	74	5	girlfriend	3	133.0	NA
82	26	20	M	Filler	74	5	criticized	4	83.0	NA
82	26	20	M	Filler	74	5	the	5	84.0	NA
82	26	20	M	Filler	74	5	author's	6	101.0	NA
82	26	20	M	Filler	74	5	agent	7	132.0	NA
82	26	20	M	Filler	74	5	because	8	103.0	NA
82	26	20	M	Filler	74	5	he	9	115.0	NA
82	26	20	M	Filler	74	5	had	10	133.0	NA
82	26	20	M	Filler	74	5	failed	11	134.0	NA
82	26	20	M	Filler	74	5	to	12	100.0	NA
82	26	20	M	Filler	74	5	meet	13	151.0	NA
82	26	20	M	Filler	74	5	a	14	99.0	NA
82	26	20	M	Filler	74	5	deadline.	15	118.0	NA
82	26	20	M	Question	74	5	NA	NA	2099.0	1
83	26	20	M	Filler	108	5	The	1	326.0	NA
83	26	20	M	Filler	108	5	museum	2	119.0	NA
83	26	20	M	Filler	108	5	wing	3	101.0	NA
83	26	20	M	Filler	108	5	which	4	98.0	NA
83	26	20	M	Filler	108	5	housed	5	83.0	NA
83	26	20	M	Filler	108	5	all	6	100.0	NA
83	26	20	M	Filler	108	5	the	7	100.0	NA
83	26	20	M	Filler	108	5	Picasso	8	135.0	NA
83	26	20	M	Filler	108	5	paintings	9	133.0	NA
83	26	20	M	Filler	108	5	was	10	66.0	NA
83	26	20	M	Filler	108	5	very	11	116.0	NA
83	26	20	M	Filler	108	5	crowded.	12	84.0	NA
83	26	20	M	Question	108	5	NA	NA	1402.0	1
84	26	20	M	Filler	83	5	The	1	228.0	NA
84	26	20	M	Filler	83	5	passengers	2	68.0	NA
84	26	20	M	Filler	83	5	screamed	3	183.0	NA
84	26	20	M	Filler	83	5	as	4	83.0	NA
84	26	20	M	Filler	83	5	the	5	116.0	NA
84	26	20	M	Filler	83	5	plane	6	99.0	NA
84	26	20	M	Filler	83	5	dipped	7	119.0	NA
84	26	20	M	Filler	83	5	and	8	82.0	NA
84	26	20	M	Filler	83	5	the	9	51.0	NA
84	26	20	M	Filler	83	5	pilots	10	382.0	NA
84	26	20	M	Filler	83	5	said	11	316.0	NA
84	26	20	M	Filler	83	5	their	12	101.0	NA
84	26	20	M	Filler	83	5	prayers	13	84.0	NA
84	26	20	M	Filler	83	5	quietly.	14	234.0	NA
84	26	20	M	Question	83	5	NA	NA	1301.0	1
85	26	20	M	swets	10	2	The	1	679.0	NA
85	26	20	M	swets	10	2	uncle	2	116.0	NA
85	26	20	M	swets	10	2	of	3	85.0	NA
85	26	20	M	swets	10	2	the	4	134.0	NA
85	26	20	M	swets	10	2	nun	5	116.0	NA
85	26	20	M	swets	10	2	who	6	334.0	NA
85	26	20	M	swets	10	2	lost	7	165.0	NA
85	26	20	M	swets	10	2	herself	8	101.0	NA
85	26	20	M	swets	10	2	in	9	151.0	NA
85	26	20	M	swets	10	2	thought	10	168.0	NA
85	26	20	M	swets	10	2	was	11	101.0	NA
85	26	20	M	swets	10	2	disturbed	12	133.0	NA
85	26	20	M	swets	10	2	by	13	148.0	NA
85	26	20	M	swets	10	2	the	14	150.0	NA
85	26	20	M	swets	10	2	noise.	15	151.0	NA
85	26	20	M	Question	10	2	NA	NA	2001.0	0
86	26	20	M	Filler	57	4	The	1	445.0	NA
86	26	20	M	Filler	57	4	architect	2	135.0	NA
86	26	20	M	Filler	57	4	was	3	116.0	NA
86	26	20	M	Filler	57	4	embarrassed	4	100.0	NA
86	26	20	M	Filler	57	4	by	5	101.0	NA
86	26	20	M	Filler	57	4	the	6	116.0	NA
86	26	20	M	Filler	57	4	memo	7	115.0	NA
86	26	20	M	Filler	57	4	of	8	101.0	NA
86	26	20	M	Filler	57	4	the	9	83.0	NA
86	26	20	M	Filler	57	4	engineer	10	83.0	NA
86	26	20	M	Filler	57	4	because	11	84.0	NA
86	26	20	M	Filler	57	4	it	12	83.0	NA
86	26	20	M	Filler	57	4	said	13	100.0	NA
86	26	20	M	Filler	57	4	that	14	100.0	NA
86	26	20	M	Filler	57	4	his	15	83.0	NA
86	26	20	M	Filler	57	4	building	16	117.0	NA
86	26	20	M	Filler	57	4	would	17	66.0	NA
86	26	20	M	Filler	57	4	collapse.	18	69.0	NA
86	26	20	M	Question	57	4	NA	NA	2069.0	1
87	26	20	M	Filler	99	5	The	1	346.0	NA
87	26	20	M	Filler	99	5	daring	2	282.0	NA
87	26	20	M	Filler	99	5	photographer	3	170.0	NA
87	26	20	M	Filler	99	5	captured	4	115.0	NA
87	26	20	M	Filler	99	5	the	5	133.0	NA
87	26	20	M	Filler	99	5	image	6	132.0	NA
87	26	20	M	Filler	99	5	of	7	119.0	NA
87	26	20	M	Filler	99	5	the	8	117.0	NA
87	26	20	M	Filler	99	5	destruction	9	132.0	NA
87	26	20	M	Filler	99	5	as	10	135.0	NA
87	26	20	M	Filler	99	5	it	11	118.0	NA
87	26	20	M	Filler	99	5	devastated	12	133.0	NA
87	26	20	M	Filler	99	5	the	13	165.0	NA
87	26	20	M	Filler	99	5	village.	14	118.0	NA
87	26	20	M	Question	99	5	NA	NA	2285.0	1
88	26	20	M	Filler	70	4	The	1	4631.0	NA
88	26	20	M	Filler	70	4	warden	2	115.0	NA
88	26	20	M	Filler	70	4	was	3	103.0	NA
88	26	20	M	Filler	70	4	dissatisfied	4	115.0	NA
88	26	20	M	Filler	70	4	with	5	134.0	NA
88	26	20	M	Filler	70	4	the	6	132.0	NA
88	26	20	M	Filler	70	4	decision	7	119.0	NA
88	26	20	M	Filler	70	4	of	8	148.0	NA
88	26	20	M	Filler	70	4	the	9	119.0	NA
88	26	20	M	Filler	70	4	parole	10	115.0	NA
88	26	20	M	Filler	70	4	committee	11	133.0	NA
88	26	20	M	Filler	70	4	to	12	168.0	NA
88	26	20	M	Filler	70	4	pardon	13	149.0	NA
88	26	20	M	Filler	70	4	the	14	149.0	NA
88	26	20	M	Filler	70	4	prisoner.	15	318.0	NA
88	26	20	M	Question	70	4	NA	NA	1401.0	1
89	26	20	M	swets	2	3	The	1	278.0	NA
89	26	20	M	swets	2	3	sister	2	216.0	NA
89	26	20	M	swets	2	3	of	3	166.0	NA
89	26	20	M	swets	2	3	the	4	169.0	NA
89	26	20	M	swets	2	3	fireman	5	131.0	NA
89	26	20	M	swets	2	3	who	6	185.0	NA
89	26	20	M	swets	2	3	criticized	7	132.0	NA
89	26	20	M	swets	2	3	herself	8	150.0	NA
89	26	20	M	swets	2	3	far	9	134.0	NA
89	26	20	M	swets	2	3	too	10	284.0	NA
89	26	20	M	swets	2	3	often	11	250.0	NA
89	26	20	M	swets	2	3	was	12	199.0	NA
89	26	20	M	swets	2	3	painting	13	184.0	NA
89	26	20	M	swets	2	3	the	14	237.0	NA
89	26	20	M	swets	2	3	bedroom.	15	215.0	NA
89	26	20	M	Question	2	3	NA	NA	1800.0	1
90	26	20	M	Filler	95	5	The	1	279.0	NA
90	26	20	M	Filler	95	5	receptionist	2	67.0	NA
90	26	20	M	Filler	95	5	of	3	99.0	NA
90	26	20	M	Filler	95	5	the	4	82.0	NA
90	26	20	M	Filler	95	5	company	5	84.0	NA
90	26	20	M	Filler	95	5	went	6	86.0	NA
90	26	20	M	Filler	95	5	home	7	83.0	NA
90	26	20	M	Filler	95	5	sick	8	316.0	NA
90	26	20	M	Filler	95	5	before	9	86.0	NA
90	26	20	M	Filler	95	5	moving	10	82.0	NA
90	26	20	M	Filler	95	5	across	11	33.0	NA
90	26	20	M	Filler	95	5	town.	12	50.0	NA
90	26	20	M	Question	95	5	NA	NA	2585.0	1
91	26	20	M	Filler	135	7	While	1	277.0	NA
91	26	20	M	Filler	135	7	Donna	2	136.0	NA
91	26	20	M	Filler	135	7	and	3	115.0	NA
91	26	20	M	Filler	135	7	Scott	4	167.0	NA
91	26	20	M	Filler	135	7	met	5	117.0	NA
91	26	20	M	Filler	135	7	their	6	133.0	NA
91	26	20	M	Filler	135	7	agent	7	134.0	NA
91	26	20	M	Filler	135	7	some	8	133.0	NA
91	26	20	M	Filler	135	7	friends	9	115.0	NA
91	26	20	M	Filler	135	7	called	10	150.0	NA
91	26	20	M	Filler	135	7	and	11	118.0	NA
91	26	20	M	Filler	135	7	left	12	135.0	NA
91	26	20	M	Filler	135	7	a	13	381.0	NA
91	26	20	M	Filler	135	7	message.	14	168.0	NA
91	26	20	M	Question	135	7	NA	NA	1903.0	0
92	26	20	M	Filler	81	5	The	1	544.0	NA
92	26	20	M	Filler	81	5	stubborn	2	84.0	NA
92	26	20	M	Filler	81	5	old	3	284.0	NA
92	26	20	M	Filler	81	5	man	4	150.0	NA
92	26	20	M	Filler	81	5	criticized	5	101.0	NA
92	26	20	M	Filler	81	5	everything	6	133.0	NA
92	26	20	M	Filler	81	5	that	7	116.0	NA
92	26	20	M	Filler	81	5	the	8	115.0	NA
92	26	20	M	Filler	81	5	young	9	153.0	NA
92	26	20	M	Filler	81	5	student	10	117.0	NA
92	26	20	M	Filler	81	5	did.	11	99.0	NA
92	26	20	M	Question	81	5	NA	NA	1984.0	1
93	26	20	M	Filler	52	4	The	1	982.0	NA
93	26	20	M	Filler	52	4	students	2	216.0	NA
93	26	20	M	Filler	52	4	were	3	118.0	NA
93	26	20	M	Filler	52	4	bored	4	131.0	NA
93	26	20	M	Filler	52	4	by	5	85.0	NA
93	26	20	M	Filler	52	4	the	6	100.0	NA
93	26	20	M	Filler	52	4	teacher.	7	115.0	NA
93	26	20	M	Question	52	4	NA	NA	1934.0	1
94	26	20	M	Filler	45	4	The	1	280.0	NA
94	26	20	M	Filler	45	4	plumber	2	83.0	NA
94	26	20	M	Filler	45	4	repaired	3	150.0	NA
94	26	20	M	Filler	45	4	the	4	16.0	NA
94	26	20	M	Filler	45	4	sink	5	283.0	NA
94	26	20	M	Filler	45	4	of	6	66.0	NA
94	26	20	M	Filler	45	4	the	7	416.0	NA
94	26	20	M	Filler	45	4	tenant	8	117.0	NA
94	26	20	M	Filler	45	4	because	9	101.0	NA
94	26	20	M	Filler	45	4	he	10	49.0	NA
94	26	20	M	Filler	45	4	had	11	117.0	NA
94	26	20	M	Filler	45	4	just	12	349.0	NA
94	26	20	M	Filler	45	4	moved	13	269.0	NA
94	26	20	M	Filler	45	4	in.	14	114.0	NA
94	26	20	M	Question	45	4	NA	NA	1304.0	1
95	26	20	M	swets	25	2	The	1	429.0	NA
95	26	20	M	swets	25	2	grandfather	2	84.0	NA
95	26	20	M	swets	25	2	of	3	100.0	NA
95	26	20	M	swets	25	2	the	4	83.0	NA
95	26	20	M	swets	25	2	stewardess	5	115.0	NA
95	26	20	M	swets	25	2	who	6	100.0	NA
95	26	20	M	swets	25	2	treated	7	68.0	NA
95	26	20	M	swets	25	2	herself	8	50.0	NA
95	26	20	M	swets	25	2	to	9	148.0	NA
95	26	20	M	swets	25	2	an	10	217.0	NA
95	26	20	M	swets	25	2	ice-cream	11	418.0	NA
95	26	20	M	swets	25	2	cone	12	285.0	NA
95	26	20	M	swets	25	2	was	13	284.0	NA
95	26	20	M	swets	25	2	waiting	14	182.0	NA
95	26	20	M	swets	25	2	at	15	252.0	NA
95	26	20	M	swets	25	2	home.	16	265.0	NA
95	26	20	M	Question	25	2	NA	NA	1451.0	1
96	26	20	M	Filler	90	5	The	1	280.0	NA
96	26	20	M	Filler	90	5	artist	2	82.0	NA
96	26	20	M	Filler	90	5	was	3	136.0	NA
96	26	20	M	Filler	90	5	not	4	65.0	NA
96	26	20	M	Filler	90	5	satisfied	5	52.0	NA
96	26	20	M	Filler	90	5	with	6	50.0	NA
96	26	20	M	Filler	90	5	his	7	32.0	NA
96	26	20	M	Filler	90	5	painting	8	52.0	NA
96	26	20	M	Filler	90	5	because	9	383.0	NA
96	26	20	M	Filler	90	5	the	10	118.0	NA
96	26	20	M	Filler	90	5	shading	11	98.0	NA
96	26	20	M	Filler	90	5	was	12	318.0	NA
96	26	20	M	Filler	90	5	off.	13	98.0	NA
96	26	20	M	Question	90	5	NA	NA	1401.0	0
97	26	20	M	Filler	47	4	The	1	529.0	NA
97	26	20	M	Filler	47	4	boys	2	132.0	NA
97	26	20	M	Filler	47	4	all	3	98.0	NA
97	26	20	M	Filler	47	4	admired	4	119.0	NA
97	26	20	M	Filler	47	4	the	5	82.0	NA
97	26	20	M	Filler	47	4	singer	6	100.0	NA
97	26	20	M	Filler	47	4	of	7	84.0	NA
97	26	20	M	Filler	47	4	the	8	317.0	NA
97	26	20	M	Filler	47	4	song	9	283.0	NA
97	26	20	M	Filler	47	4	with	10	118.0	NA
97	26	20	M	Filler	47	4	the	11	66.0	NA
97	26	20	M	Filler	47	4	long	12	99.0	NA
97	26	20	M	Filler	47	4	eyelashes.	13	101.0	NA
97	26	20	M	Question	47	4	NA	NA	1267.0	1
98	26	20	M	swets	29	3	The	1	262.0	NA
98	26	20	M	swets	29	3	daughter	2	116.0	NA
98	26	20	M	swets	29	3	of	3	67.0	NA
98	26	20	M	swets	29	3	the	4	116.0	NA
98	26	20	M	swets	29	3	colonel	5	85.0	NA
98	26	20	M	swets	29	3	who	6	65.0	NA
98	26	20	M	swets	29	3	enjoyed	7	83.0	NA
98	26	20	M	swets	29	3	herself	8	68.0	NA
98	26	20	M	swets	29	3	a	9	133.0	NA
98	26	20	M	swets	29	3	lot	10	116.0	NA
98	26	20	M	swets	29	3	was	11	115.0	NA
98	26	20	M	swets	29	3	out	12	118.0	NA
98	26	20	M	swets	29	3	on	13	118.0	NA
98	26	20	M	swets	29	3	the	14	99.0	NA
98	26	20	M	swets	29	3	balcony.	15	116.0	NA
98	26	20	M	Question	29	3	NA	NA	1452.0	1
99	26	20	M	Filler	87	5	The	1	1547.0	NA
99	26	20	M	Filler	87	5	car	2	116.0	NA
99	26	20	M	Filler	87	5	chased	3	131.0	NA
99	26	20	M	Filler	87	5	the	4	120.0	NA
99	26	20	M	Filler	87	5	robber	5	99.0	NA
99	26	20	M	Filler	87	5	of	6	101.0	NA
99	26	20	M	Filler	87	5	the	7	84.0	NA
99	26	20	M	Filler	87	5	bank	8	84.0	NA
99	26	20	M	Filler	87	5	into	9	99.0	NA
99	26	20	M	Filler	87	5	a	10	101.0	NA
99	26	20	M	Filler	87	5	narrow	11	84.0	NA
99	26	20	M	Filler	87	5	alley.	12	99.0	NA
99	26	20	M	Question	87	5	NA	NA	1417.0	0
100	26	20	M	swets	14	3	The	1	179.0	NA
100	26	20	M	swets	14	3	father	2	66.0	NA
100	26	20	M	swets	14	3	of	3	153.0	NA
100	26	20	M	swets	14	3	the	4	82.0	NA
100	26	20	M	swets	14	3	nurse	5	52.0	NA
100	26	20	M	swets	14	3	who	6	117.0	NA
100	26	20	M	swets	14	3	injured	7	82.0	NA
100	26	20	M	swets	14	3	himself	8	67.0	NA
100	26	20	M	swets	14	3	last	9	284.0	NA
100	26	20	M	swets	14	3	summer	10	65.0	NA
100	26	20	M	swets	14	3	had	11	168.0	NA
100	26	20	M	swets	14	3	lived	12	382.0	NA
100	26	20	M	swets	14	3	in	13	50.0	NA
100	26	20	M	swets	14	3	Wales.	14	133.0	NA
100	26	20	M	Question	14	3	NA	NA	1484.0	1
101	26	20	M	Filler	103	5	The	1	313.0	NA
101	26	20	M	Filler	103	5	desperate	2	133.0	NA
101	26	20	M	Filler	103	5	thief	3	51.0	NA
101	26	20	M	Filler	103	5	ran	4	82.0	NA
101	26	20	M	Filler	103	5	over	5	116.0	NA
101	26	20	M	Filler	103	5	a	6	417.0	NA
101	26	20	M	Filler	103	5	child	7	219.0	NA
101	26	20	M	Filler	103	5	in	8	198.0	NA
101	26	20	M	Filler	103	5	an	9	169.0	NA
101	26	20	M	Filler	103	5	attempt	10	182.0	NA
101	26	20	M	Filler	103	5	to	11	150.0	NA
101	26	20	M	Filler	103	5	dodge	12	183.0	NA
101	26	20	M	Filler	103	5	the	13	185.0	NA
101	26	20	M	Filler	103	5	cops.	14	216.0	NA
101	26	20	M	Question	103	5	NA	NA	1716.0	0
102	26	20	M	swets	24	1	The	1	412.0	NA
102	26	20	M	swets	24	1	assistant	2	152.0	NA
102	26	20	M	swets	24	1	of	3	117.0	NA
102	26	20	M	swets	24	1	the	4	115.0	NA
102	26	20	M	swets	24	1	chaplain	5	100.0	NA
102	26	20	M	swets	24	1	who	6	131.0	NA
102	26	20	M	swets	24	1	drew	7	152.0	NA
102	26	20	M	swets	24	1	attention	8	132.0	NA
102	26	20	M	swets	24	1	to	9	152.0	NA
102	26	20	M	swets	24	1	himself	10	134.0	NA
102	26	20	M	swets	24	1	all	11	116.0	NA
102	26	20	M	swets	24	1	the	12	117.0	NA
102	26	20	M	swets	24	1	time	13	147.0	NA
102	26	20	M	swets	24	1	hated	14	134.0	NA
102	26	20	M	swets	24	1	small	15	103.0	NA
102	26	20	M	swets	24	1	children.	16	149.0	NA
102	26	20	M	Question	24	1	NA	NA	1404.0	1
103	26	20	M	Filler	132	7	While	1	313.0	NA
103	26	20	M	Filler	132	7	John	2	116.0	NA
103	26	20	M	Filler	132	7	and	3	116.0	NA
103	26	20	M	Filler	132	7	Mary	4	134.0	NA
103	26	20	M	Filler	132	7	kissed	5	100.0	NA
103	26	20	M	Filler	132	7	their	6	148.0	NA
103	26	20	M	Filler	132	7	daughter	7	218.0	NA
103	26	20	M	Filler	132	7	fell	8	101.0	NA
103	26	20	M	Filler	132	7	asleep.	9	83.0	NA
103	26	20	M	Question	132	7	NA	NA	2635.0	0
104	26	20	M	swets	18	1	The	1	1597.0	NA
104	26	20	M	swets	18	1	nephew	2	285.0	NA
104	26	20	M	swets	18	1	of	3	148.0	NA
104	26	20	M	swets	18	1	the	4	101.0	NA
104	26	20	M	swets	18	1	fisherman	5	84.0	NA
104	26	20	M	swets	18	1	who	6	114.0	NA
104	26	20	M	swets	18	1	drowned	7	102.0	NA
104	26	20	M	swets	18	1	himself	8	132.0	NA
104	26	20	M	swets	18	1	in	9	133.0	NA
104	26	20	M	swets	18	1	the	10	116.0	NA
104	26	20	M	swets	18	1	ocean	11	135.0	NA
104	26	20	M	swets	18	1	didn't	12	115.0	NA
104	26	20	M	swets	18	1	know	13	117.0	NA
104	26	20	M	swets	18	1	about	14	151.0	NA
104	26	20	M	swets	18	1	the	15	99.0	NA
104	26	20	M	swets	18	1	tricky	16	119.0	NA
104	26	20	M	swets	18	1	current.	17	483.0	NA
104	26	20	M	Question	18	1	NA	NA	4205.0	1
105	26	20	M	Filler	104	5	Despite	1	NA	NA
106	26	20	M	Filler	79	5	Although	1	30.0	NA
106	26	20	M	Filler	79	5	the	2	282.0	NA
106	26	20	M	Filler	79	5	mechanic	3	150.0	NA
106	26	20	M	Filler	79	5	said	4	115.0	NA
106	26	20	M	Filler	79	5	the	5	102.0	NA
106	26	20	M	Filler	79	5	job	6	99.0	NA
106	26	20	M	Filler	79	5	would	7	116.0	NA
106	26	20	M	Filler	79	5	take	8	103.0	NA
106	26	20	M	Filler	79	5	four	9	117.0	NA
106	26	20	M	Filler	79	5	days	10	99.0	NA
106	26	20	M	Filler	79	5	the	11	119.0	NA
106	26	20	M	Filler	79	5	client	12	99.0	NA
106	26	20	M	Filler	79	5	didn't	13	134.0	NA
106	26	20	M	Filler	79	5	receive	14	102.0	NA
106	26	20	M	Filler	79	5	her	15	117.0	NA
106	26	20	M	Filler	79	5	car	16	99.0	NA
106	26	20	M	Filler	79	5	for	17	132.0	NA
106	26	20	M	Filler	79	5	six	18	82.0	NA
106	26	20	M	Filler	79	5	weeks.	19	202.0	NA
106	26	20	M	Question	79	5	NA	NA	1417.0	1
107	26	20	M	Filler	130	7	While	1	29.0	NA
107	26	20	M	Filler	130	7	Margo	2	168.0	NA
107	26	20	M	Filler	130	7	bathed	3	33.0	NA
107	26	20	M	Filler	130	7	the	4	117.0	NA
107	26	20	M	Filler	130	7	dog	5	101.0	NA
107	26	20	M	Filler	130	7	barked	6	98.0	NA
107	26	20	M	Filler	130	7	in	7	101.0	NA
107	26	20	M	Filler	130	7	the	8	166.0	NA
107	26	20	M	Filler	130	7	yard.	9	134.0	NA
107	26	20	M	Question	130	7	NA	NA	735.0	0
108	26	20	M	Filler	143	7	The	1	112.0	NA
108	26	20	M	Filler	143	7	lawyer	2	267.0	NA
108	26	20	M	Filler	143	7	and	3	233.0	NA
108	26	20	M	Filler	143	7	defendant	4	152.0	NA
108	26	20	M	Filler	143	7	whispered	5	217.0	NA
108	26	20	M	Filler	143	7	furiously	6	68.0	NA
108	26	20	M	Filler	143	7	during	7	101.0	NA
108	26	20	M	Filler	143	7	the	8	215.0	NA
108	26	20	M	Filler	143	7	recess.	9	199.0	NA
108	26	20	M	Question	143	7	NA	NA	1051.0	0
109	26	20	M	Filler	128	7	While	1	627.0	NA
109	26	20	M	Filler	128	7	the	2	134.0	NA
109	26	20	M	Filler	128	7	man	3	119.0	NA
109	26	20	M	Filler	128	7	was	4	216.0	NA
109	26	20	M	Filler	128	7	walking	5	134.0	NA
109	26	20	M	Filler	128	7	the	6	67.0	NA
109	26	20	M	Filler	128	7	poodle	7	116.0	NA
109	26	20	M	Filler	128	7	barked	8	167.0	NA
109	26	20	M	Filler	128	7	loudly.	9	83.0	NA
109	26	20	M	Question	128	7	NA	NA	1167.0	0
110	26	20	M	swets	19	2	The	1	45.0	NA
110	26	20	M	swets	19	2	mistress	2	151.0	NA
110	26	20	M	swets	19	2	of	3	101.0	NA
110	26	20	M	swets	19	2	the	4	317.0	NA
110	26	20	M	swets	19	2	actor	5	149.0	NA
110	26	20	M	swets	19	2	who	6	102.0	NA
110	26	20	M	swets	19	2	hated	7	101.0	NA
110	26	20	M	swets	19	2	himself	8	216.0	NA
110	26	20	M	swets	19	2	for	9	116.0	NA
110	26	20	M	swets	19	2	lying	10	132.0	NA
110	26	20	M	swets	19	2	left	11	102.0	NA
110	26	20	M	swets	19	2	town	12	216.0	NA
110	26	20	M	swets	19	2	in	13	50.0	NA
110	26	20	M	swets	19	2	a	14	201.0	NA
110	26	20	M	swets	19	2	hurry.	15	198.0	NA
110	26	20	M	Question	19	2	NA	NA	2102.0	0
111	26	20	M	Filler	107	5	The	1	296.0	NA
111	26	20	M	Filler	107	5	citizens	2	83.0	NA
111	26	20	M	Filler	107	5	were	3	101.0	NA
111	26	20	M	Filler	107	5	dissatisfied	4	50.0	NA
111	26	20	M	Filler	107	5	with	5	81.0	NA
111	26	20	M	Filler	107	5	the	6	168.0	NA
111	26	20	M	Filler	107	5	mayor	7	132.0	NA
111	26	20	M	Filler	107	5	of	8	101.0	NA
111	26	20	M	Filler	107	5	town	9	200.0	NA
111	26	20	M	Filler	107	5	because	10	33.0	NA
111	26	20	M	Filler	107	5	he	11	283.0	NA
111	26	20	M	Filler	107	5	had	12	184.0	NA
111	26	20	M	Filler	107	5	little	13	367.0	NA
111	26	20	M	Filler	107	5	experience.	14	135.0	NA
111	26	20	M	Question	107	5	NA	NA	1784.0	0
112	26	20	M	Filler	125	6	The	1	130.0	NA
112	26	20	M	Filler	125	6	bosses	2	150.0	NA
112	26	20	M	Filler	125	6	and	3	148.0	NA
112	26	20	M	Filler	125	6	secretaries	4	52.0	NA
112	26	20	M	Filler	125	6	took	5	231.0	NA
112	26	20	M	Filler	125	6	a	6	118.0	NA
112	26	20	M	Filler	125	6	long	7	35.0	NA
112	26	20	M	Filler	125	6	lunch	8	49.0	NA
112	26	20	M	Filler	125	6	together	9	35.0	NA
112	26	20	M	Filler	125	6	every	10	32.0	NA
112	26	20	M	Filler	125	6	Friday.	11	234.0	NA
112	26	20	M	Question	125	6	NA	NA	1850.0	0
113	26	20	M	swets	8	3	The	1	244.0	NA
113	26	20	M	swets	8	3	brother	2	118.0	NA
113	26	20	M	swets	8	3	of	3	66.0	NA
113	26	20	M	swets	8	3	the	4	85.0	NA
113	26	20	M	swets	8	3	seamstress	5	99.0	NA
113	26	20	M	swets	8	3	who	6	103.0	NA
113	26	20	M	swets	8	3	entertained	7	81.0	NA
113	26	20	M	swets	8	3	himself	8	101.0	NA
113	26	20	M	swets	8	3	most	9	66.0	NA
113	26	20	M	swets	8	3	evenings	10	334.0	NA
113	26	20	M	swets	8	3	was	11	283.0	NA
113	26	20	M	swets	8	3	reading	12	99.0	NA
113	26	20	M	swets	8	3	a	13	99.0	NA
113	26	20	M	swets	8	3	book.	14	51.0	NA
113	26	20	M	Question	8	3	NA	NA	1001.0	1
114	26	20	M	Filler	96	5	The	1	1762.0	NA
114	26	20	M	Filler	96	5	evil	2	349.0	NA
114	26	20	M	Filler	96	5	man	3	101.0	NA
114	26	20	M	Filler	96	5	watched	4	117.0	NA
114	26	20	M	Filler	96	5	the	5	150.0	NA
114	26	20	M	Filler	96	5	doorway	6	199.0	NA
114	26	20	M	Filler	96	5	of	7	168.0	NA
114	26	20	M	Filler	96	5	the	8	167.0	NA
114	26	20	M	Filler	96	5	bar	9	181.0	NA
114	26	20	M	Filler	96	5	every	10	167.0	NA
114	26	20	M	Filler	96	5	Friday	11	135.0	NA
114	26	20	M	Filler	96	5	night.	12	198.0	NA
114	26	20	M	Question	96	5	NA	NA	916.0	1
115	26	20	M	Filler	140	7	The	1	246.0	NA
115	26	20	M	Filler	140	7	investigators	2	67.0	NA
115	26	20	M	Filler	140	7	asked	3	100.0	NA
115	26	20	M	Filler	140	7	which	4	100.0	NA
115	26	20	M	Filler	140	7	mansion	5	115.0	NA
115	26	20	M	Filler	140	7	the	6	82.0	NA
115	26	20	M	Filler	140	7	owner	7	183.0	NA
115	26	20	M	Filler	140	7	sold	8	85.0	NA
115	26	20	M	Filler	140	7	and	9	149.0	NA
115	26	20	M	Filler	140	7	didn't	10	153.0	NA
115	26	20	M	Filler	140	7	repair	11	148.0	NA
115	26	20	M	Filler	140	7	ten	12	68.0	NA
115	26	20	M	Filler	140	7	years	13	101.0	NA
115	26	20	M	Filler	140	7	ago.	14	249.0	NA
115	26	20	M	Question	140	7	NA	NA	1068.0	0
116	26	20	M	Filler	38	4	Despite	1	264.0	NA
116	26	20	M	Filler	38	4	the	2	115.0	NA
116	26	20	M	Filler	38	4	lack	3	82.0	NA
116	26	20	M	Filler	38	4	of	4	85.0	NA
116	26	20	M	Filler	38	4	publicity	5	166.0	NA
116	26	20	M	Filler	38	4	many	6	168.0	NA
116	26	20	M	Filler	38	4	people	7	99.0	NA
116	26	20	M	Filler	38	4	attended	8	118.0	NA
116	26	20	M	Filler	38	4	the	9	85.0	NA
116	26	20	M	Filler	38	4	lecture.	10	99.0	NA
116	26	20	M	Question	38	4	NA	NA	1149.0	1
117	26	20	M	Filler	82	5	The	1	446.0	NA
117	26	20	M	Filler	82	5	patient's	2	68.0	NA
117	26	20	M	Filler	82	5	seizures	3	99.0	NA
117	26	20	M	Filler	82	5	appeared	4	67.0	NA
117	26	20	M	Filler	82	5	to	5	100.0	NA
117	26	20	M	Filler	82	5	have	6	165.0	NA
117	26	20	M	Filler	82	5	been	7	100.0	NA
117	26	20	M	Filler	82	5	eliminated	8	50.0	NA
117	26	20	M	Filler	82	5	by	9	187.0	NA
117	26	20	M	Filler	82	5	the	10	49.0	NA
117	26	20	M	Filler	82	5	surgery.	11	136.0	NA
117	26	20	M	Question	82	5	NA	NA	1116.0	0
118	26	20	M	swets	35	3	The	1	195.0	NA
118	26	20	M	swets	35	3	landlady	2	35.0	NA
118	26	20	M	swets	35	3	of	3	114.0	NA
118	26	20	M	swets	35	3	the	4	68.0	NA
118	26	20	M	swets	35	3	businessman	5	100.0	NA
118	26	20	M	swets	35	3	who	6	98.0	NA
118	26	20	M	swets	35	3	had	7	86.0	NA
118	26	20	M	swets	35	3	locked	8	83.0	NA
118	26	20	M	swets	35	3	herself	9	86.0	NA
118	26	20	M	swets	35	3	in	10	99.0	NA
118	26	20	M	swets	35	3	the	11	83.0	NA
118	26	20	M	swets	35	3	office	12	67.0	NA
118	26	20	M	swets	35	3	received	13	150.0	NA
118	26	20	M	swets	35	3	a	14	85.0	NA
118	26	20	M	swets	35	3	phone	15	65.0	NA
118	26	20	M	swets	35	3	call.	16	134.0	NA
118	26	20	M	Question	35	3	NA	NA	2400.0	1
119	26	20	M	Filler	76	5	After	1	145.0	NA
119	26	20	M	Filler	76	5	fifty	2	118.0	NA
119	26	20	M	Filler	76	5	years	3	167.0	NA
119	26	20	M	Filler	76	5	of	4	100.0	NA
119	26	20	M	Filler	76	5	marriage	5	117.0	NA
119	26	20	M	Filler	76	5	the	6	65.0	NA
119	26	20	M	Filler	76	5	old	7	118.0	NA
119	26	20	M	Filler	76	5	couple	8	100.0	NA
119	26	20	M	Filler	76	5	still	9	116.0	NA
119	26	20	M	Filler	76	5	felt	10	116.0	NA
119	26	20	M	Filler	76	5	the	11	117.0	NA
119	26	20	M	Filler	76	5	same	12	67.0	NA
119	26	20	M	Filler	76	5	about	13	132.0	NA
119	26	20	M	Filler	76	5	each	14	150.0	NA
119	26	20	M	Filler	76	5	other	15	84.0	NA
119	26	20	M	Filler	76	5	as	16	199.0	NA
119	26	20	M	Filler	76	5	they	17	201.0	NA
119	26	20	M	Filler	76	5	had	18	99.0	NA
119	26	20	M	Filler	76	5	on	19	119.0	NA
119	26	20	M	Filler	76	5	their	20	166.0	NA
119	26	20	M	Filler	76	5	wedding	21	185.0	NA
119	26	20	M	Filler	76	5	day.	22	149.0	NA
119	26	20	M	Question	76	5	NA	NA	1685.0	1
120	26	20	M	Filler	93	5	The	1	229.0	NA
120	26	20	M	Filler	93	5	new	2	115.0	NA
120	26	20	M	Filler	93	5	book	3	102.0	NA
120	26	20	M	Filler	93	5	replaced	4	116.0	NA
120	26	20	M	Filler	93	5	the	5	52.0	NA
120	26	20	M	Filler	93	5	work	6	114.0	NA
120	26	20	M	Filler	93	5	of	7	102.0	NA
120	26	20	M	Filler	93	5	the	8	102.0	NA
120	26	20	M	Filler	93	5	leaders	9	99.0	NA
120	26	20	M	Filler	93	5	in	10	101.0	NA
120	26	20	M	Filler	93	5	the	11	115.0	NA
120	26	20	M	Filler	93	5	field	12	101.0	NA
120	26	20	M	Filler	93	5	of	13	99.0	NA
120	26	20	M	Filler	93	5	physical	14	117.0	NA
120	26	20	M	Filler	93	5	chemistry.	15	118.0	NA
120	26	20	M	Question	93	5	NA	NA	1067.0	0
121	26	20	M	Filler	137	7	When	1	1461.0	NA
121	26	20	M	Filler	137	7	Leslie	2	253.0	NA
121	26	20	M	Filler	137	7	was	3	117.0	NA
121	26	20	M	Filler	137	7	sneezing	4	101.0	NA
121	26	20	M	Filler	137	7	her	5	98.0	NA
121	26	20	M	Filler	137	7	friends	6	120.0	NA
121	26	20	M	Filler	137	7	laughed	7	82.0	NA
121	26	20	M	Filler	137	7	at	8	51.0	NA
121	26	20	M	Filler	137	7	her.	9	116.0	NA
121	26	20	M	Question	137	7	NA	NA	1485.0	1
122	26	20	M	Filler	112	6	As	1	312.0	NA
122	26	20	M	Filler	112	6	the	2	53.0	NA
122	26	20	M	Filler	112	6	dog	3	133.0	NA
122	26	20	M	Filler	112	6	was	4	65.0	NA
122	26	20	M	Filler	112	6	calming	5	101.0	NA
122	26	20	M	Filler	112	6	down	6	66.0	NA
122	26	20	M	Filler	112	6	the	7	100.0	NA
122	26	20	M	Filler	112	6	puppy	8	100.0	NA
122	26	20	M	Filler	112	6	slept	9	333.0	NA
122	26	20	M	Filler	112	6	in	10	150.0	NA
122	26	20	M	Filler	112	6	the	11	133.0	NA
122	26	20	M	Filler	112	6	cage.	12	101.0	NA
122	26	20	M	Question	112	6	NA	NA	1000.0	1
123	26	20	M	Filler	48	4	The	1	479.0	NA
123	26	20	M	Filler	48	4	police	2	34.0	NA
123	26	20	M	Filler	48	4	arrested	3	82.0	NA
123	26	20	M	Filler	48	4	the	4	117.0	NA
123	26	20	M	Filler	48	4	sister	5	66.0	NA
123	26	20	M	Filler	48	4	of	6	134.0	NA
123	26	20	M	Filler	48	4	the	7	34.0	NA
123	26	20	M	Filler	48	4	handyman	8	150.0	NA
123	26	20	M	Filler	48	4	after	9	534.0	NA
123	26	20	M	Filler	48	4	she	10	66.0	NA
123	26	20	M	Filler	48	4	recently	11	166.0	NA
123	26	20	M	Filler	48	4	gave	12	148.0	NA
123	26	20	M	Filler	48	4	birth	13	117.0	NA
123	26	20	M	Filler	48	4	to	14	116.0	NA
123	26	20	M	Filler	48	4	twins.	15	301.0	NA
123	26	20	M	Question	48	4	NA	NA	1520.0	0
124	26	20	M	swets	13	2	The	1	829.0	NA
124	26	20	M	swets	13	2	great-aunt	2	102.0	NA
124	26	20	M	swets	13	2	of	3	48.0	NA
124	26	20	M	swets	13	2	the	4	99.0	NA
124	26	20	M	swets	13	2	policeman	5	84.0	NA
124	26	20	M	swets	13	2	who	6	50.0	NA
124	26	20	M	swets	13	2	treated	7	134.0	NA
124	26	20	M	swets	13	2	himself	8	81.0	NA
124	26	20	M	swets	13	2	after	9	369.0	NA
124	26	20	M	swets	13	2	the	10	32.0	NA
124	26	20	M	swets	13	2	accident	11	117.0	NA
124	26	20	M	swets	13	2	was	12	135.0	NA
124	26	20	M	swets	13	2	watching	13	217.0	NA
124	26	20	M	swets	13	2	the	14	100.0	NA
124	26	20	M	swets	13	2	news.	15	149.0	NA
124	26	20	M	Question	13	2	NA	NA	1550.0	0
125	26	20	M	Filler	133	7	While	1	329.0	NA
125	26	20	M	Filler	133	7	the	2	65.0	NA
125	26	20	M	Filler	133	7	lawyers	3	86.0	NA
125	26	20	M	Filler	133	7	fought	4	150.0	NA
125	26	20	M	Filler	133	7	the	5	51.0	NA
125	26	20	M	Filler	133	7	ruling	6	100.0	NA
125	26	20	M	Filler	133	7	the	7	333.0	NA
125	26	20	M	Filler	133	7	judge	8	99.0	NA
125	26	20	M	Filler	133	7	announced	9	117.0	NA
125	26	20	M	Filler	133	7	the	10	101.0	NA
125	26	20	M	Filler	133	7	decision.	11	83.0	NA
125	26	20	M	Question	133	7	NA	NA	1083.0	0
126	26	20	M	Filler	117	6	While	1	278.0	NA
126	26	20	M	Filler	117	6	Mike	2	36.0	NA
126	26	20	M	Filler	117	6	coughed	3	150.0	NA
126	26	20	M	Filler	117	6	Janet	4	134.0	NA
126	26	20	M	Filler	117	6	went	5	84.0	NA
126	26	20	M	Filler	117	6	out	6	101.0	NA
126	26	20	M	Filler	117	6	to	7	83.0	NA
126	26	20	M	Filler	117	6	get	8	97.0	NA
126	26	20	M	Filler	117	6	some	9	68.0	NA
126	26	20	M	Filler	117	6	cough	10	117.0	NA
126	26	20	M	Filler	117	6	medicine.	11	117.0	NA
126	26	20	M	Question	117	6	NA	NA	1734.0	1
127	26	20	M	Filler	41	4	While	1	294.0	NA
127	26	20	M	Filler	41	4	the	2	69.0	NA
127	26	20	M	Filler	41	4	babysitter	3	165.0	NA
127	26	20	M	Filler	41	4	watched	4	65.0	NA
127	26	20	M	Filler	41	4	soap	5	85.0	NA
127	26	20	M	Filler	41	4	operas	6	99.0	NA
127	26	20	M	Filler	41	4	the	7	116.0	NA
127	26	20	M	Filler	41	4	child	8	85.0	NA
127	26	20	M	Filler	41	4	poured	9	133.0	NA
127	26	20	M	Filler	41	4	honey	10	66.0	NA
127	26	20	M	Filler	41	4	all	11	333.0	NA
127	26	20	M	Filler	41	4	over	12	51.0	NA
127	26	20	M	Filler	41	4	the	13	134.0	NA
127	26	20	M	Filler	41	4	floor.	14	64.0	NA
127	26	20	M	Question	41	4	NA	NA	1101.0	1
128	26	20	M	Filler	66	4	The	1	296.0	NA
128	26	20	M	Filler	66	4	rare	2	116.0	NA
128	26	20	M	Filler	66	4	and	3	100.0	NA
128	26	20	M	Filler	66	4	exotic	4	83.0	NA
128	26	20	M	Filler	66	4	monkey	5	167.0	NA
128	26	20	M	Filler	66	4	was	6	101.0	NA
128	26	20	M	Filler	66	4	the	7	118.0	NA
128	26	20	M	Filler	66	4	center	8	315.0	NA
128	26	20	M	Filler	66	4	of	9	152.0	NA
128	26	20	M	Filler	66	4	attention	10	116.0	NA
128	26	20	M	Filler	66	4	at	11	134.0	NA
128	26	20	M	Filler	66	4	the	12	399.0	NA
128	26	20	M	Filler	66	4	zoo.	13	133.0	NA
128	26	20	M	Question	66	4	NA	NA	1419.0	0
129	26	20	M	Filler	75	5	The	1	413.0	NA
129	26	20	M	Filler	75	5	musician	2	100.0	NA
129	26	20	M	Filler	75	5	shocked	3	299.0	NA
129	26	20	M	Filler	75	5	the	4	83.0	NA
129	26	20	M	Filler	75	5	audience	5	101.0	NA
129	26	20	M	Filler	75	5	because	6	115.0	NA
129	26	20	M	Filler	75	5	they	7	83.0	NA
129	26	20	M	Filler	75	5	did	8	101.0	NA
129	26	20	M	Filler	75	5	not	9	99.0	NA
129	26	20	M	Filler	75	5	realize	10	84.0	NA
129	26	20	M	Filler	75	5	what	11	85.0	NA
129	26	20	M	Filler	75	5	these	12	150.0	NA
129	26	20	M	Filler	75	5	shows	13	131.0	NA
129	26	20	M	Filler	75	5	were	14	69.0	NA
129	26	20	M	Filler	75	5	like.	15	116.0	NA
129	26	20	M	Question	75	5	NA	NA	2200.0	0
130	26	20	M	swets	21	1	The	1	314.0	NA
130	26	20	M	swets	21	1	son	2	99.0	NA
130	26	20	M	swets	21	1	of	3	85.0	NA
130	26	20	M	swets	21	1	the	4	117.0	NA
130	26	20	M	swets	21	1	janitor	5	67.0	NA
130	26	20	M	swets	21	1	who	6	149.0	NA
130	26	20	M	swets	21	1	educated	7	133.0	NA
130	26	20	M	swets	21	1	himself	8	116.0	NA
130	26	20	M	swets	21	1	at	9	286.0	NA
130	26	20	M	swets	21	1	night	10	732.0	NA
130	26	20	M	swets	21	1	loved	11	85.0	NA
130	26	20	M	swets	21	1	going	12	148.0	NA
130	26	20	M	swets	21	1	to	13	134.0	NA
130	26	20	M	swets	21	1	the	14	184.0	NA
130	26	20	M	swets	21	1	theatre.	15	199.0	NA
130	26	20	M	Question	21	1	NA	NA	2503.0	1
131	26	20	M	Filler	131	7	While	1	1763.0	NA
131	26	20	M	Filler	131	7	Jamie	2	168.0	NA
131	26	20	M	Filler	131	7	dried	3	250.0	NA
131	26	20	M	Filler	131	7	off	4	116.0	NA
131	26	20	M	Filler	131	7	the	5	116.0	NA
131	26	20	M	Filler	131	7	table	6	118.0	NA
131	26	20	M	Filler	131	7	his	7	149.0	NA
131	26	20	M	Filler	131	7	sunglasses	8	136.0	NA
131	26	20	M	Filler	131	7	disappeared.	9	133.0	NA
131	26	20	M	Question	131	7	NA	NA	1399.0	0
132	26	20	M	Filler	46	4	The	1	247.0	NA
132	26	20	M	Filler	46	4	preacher	2	102.0	NA
132	26	20	M	Filler	46	4	of	3	83.0	NA
132	26	20	M	Filler	46	4	the	4	115.0	NA
132	26	20	M	Filler	46	4	congregation	5	101.0	NA
132	26	20	M	Filler	46	4	had	6	84.0	NA
132	26	20	M	Filler	46	4	given	7	66.0	NA
132	26	20	M	Filler	46	4	a	8	166.0	NA
132	26	20	M	Filler	46	4	sermon	9	100.0	NA
132	26	20	M	Filler	46	4	at	10	50.0	NA
132	26	20	M	Filler	46	4	a	11	166.0	NA
132	26	20	M	Filler	46	4	local	12	117.0	NA
132	26	20	M	Filler	46	4	school.	13	84.0	NA
132	26	20	M	Question	46	4	NA	NA	1151.0	1
133	26	20	M	swets	9	1	The	1	328.0	NA
133	26	20	M	swets	9	1	sister	2	118.0	NA
133	26	20	M	swets	9	1	of	3	83.0	NA
133	26	20	M	swets	9	1	the	4	116.0	NA
133	26	20	M	swets	9	1	schoolgirl	5	101.0	NA
133	26	20	M	swets	9	1	who	6	99.0	NA
133	26	20	M	swets	9	1	burned	7	133.0	NA
133	26	20	M	swets	9	1	herself	8	83.0	NA
133	26	20	M	swets	9	1	the	9	100.0	NA
133	26	20	M	swets	9	1	other	10	135.0	NA
133	26	20	M	swets	9	1	day	11	34.0	NA
133	26	20	M	swets	9	1	was	12	464.0	NA
133	26	20	M	swets	9	1	usually	13	153.0	NA
133	26	20	M	swets	9	1	very	14	100.0	NA
133	26	20	M	swets	9	1	careful.	15	133.0	NA
133	26	20	M	Question	9	1	NA	NA	2551.0	1
134	26	20	M	Filler	118	6	As	1	61.0	NA
134	26	20	M	Filler	118	6	the	2	602.0	NA
134	26	20	M	Filler	118	6	dog	3	64.0	NA
134	26	20	M	Filler	118	6	ran	4	102.0	NA
134	26	20	M	Filler	118	6	Wanda	5	117.0	NA
134	26	20	M	Filler	118	6	watched	6	50.0	NA
134	26	20	M	Filler	118	6	from	7	84.0	NA
134	26	20	M	Filler	118	6	the	8	150.0	NA
134	26	20	M	Filler	118	6	window.	9	52.0	NA
134	26	20	M	Question	118	6	NA	NA	767.0	1
135	26	20	M	Filler	71	4	The	1	229.0	NA
135	26	20	M	Filler	71	4	elderly	2	133.0	NA
135	26	20	M	Filler	71	4	woman	3	83.0	NA
135	26	20	M	Filler	71	4	locked	4	118.0	NA
135	26	20	M	Filler	71	4	and	5	165.0	NA
135	26	20	M	Filler	71	4	bolted	6	101.0	NA
135	26	20	M	Filler	71	4	her	7	82.0	NA
135	26	20	M	Filler	71	4	door	8	118.0	NA
135	26	20	M	Filler	71	4	every	9	100.0	NA
135	26	20	M	Filler	71	4	night	10	116.0	NA
135	26	20	M	Filler	71	4	after	11	115.0	NA
135	26	20	M	Filler	71	4	the	12	120.0	NA
135	26	20	M	Filler	71	4	robbers	13	117.0	NA
135	26	20	M	Filler	71	4	took	14	182.0	NA
135	26	20	M	Filler	71	4	her	15	67.0	NA
135	26	20	M	Filler	71	4	best	16	183.0	NA
135	26	20	M	Filler	71	4	pearls.	17	152.0	NA
135	26	20	M	Question	71	4	NA	NA	2983.0	1
136	26	20	M	Filler	134	7	As	1	146.0	NA
136	26	20	M	Filler	134	7	Shawnie	2	132.0	NA
136	26	20	M	Filler	134	7	and	3	134.0	NA
136	26	20	M	Filler	134	7	Nick	4	134.0	NA
136	26	20	M	Filler	134	7	were	5	82.0	NA
136	26	20	M	Filler	134	7	embracing	6	399.0	NA
136	26	20	M	Filler	134	7	the	7	83.0	NA
136	26	20	M	Filler	134	7	doctor	8	99.0	NA
136	26	20	M	Filler	134	7	the	9	86.0	NA
136	26	20	M	Filler	134	7	visitor	10	148.0	NA
136	26	20	M	Filler	134	7	entered	11	116.0	NA
136	26	20	M	Filler	134	7	the	12	117.0	NA
136	26	20	M	Filler	134	7	room.	13	133.0	NA
136	26	20	M	Question	134	7	NA	NA	2452.0	0
137	26	20	M	Filler	122	6	They	1	297.0	NA
137	26	20	M	Filler	122	6	don't	2	133.0	NA
137	26	20	M	Filler	122	6	know	3	84.0	NA
137	26	20	M	Filler	122	6	which	4	133.0	NA
137	26	20	M	Filler	122	6	family	5	98.0	NA
137	26	20	M	Filler	122	6	the	6	51.0	NA
137	26	20	M	Filler	122	6	hijackers	7	199.0	NA
137	26	20	M	Filler	122	6	held	8	16.0	NA
137	26	20	M	Filler	122	6	hostage	9	152.0	NA
137	26	20	M	Filler	122	6	but	10	233.0	NA
137	26	20	M	Filler	122	6	didn't	11	101.0	NA
137	26	20	M	Filler	122	6	hurt	12	84.0	NA
137	26	20	M	Filler	122	6	the	13	100.0	NA
137	26	20	M	Filler	122	6	children	14	99.0	NA
137	26	20	M	Filler	122	6	of	15	82.0	NA
137	26	20	M	Filler	122	6	too	16	85.0	NA
137	26	20	M	Filler	122	6	much.	17	116.0	NA
137	26	20	M	Question	122	6	NA	NA	1952.0	1
138	26	20	M	Filler	115	6	As	1	261.0	NA
138	26	20	M	Filler	115	6	Elaine	2	84.0	NA
138	26	20	M	Filler	115	6	and	3	134.0	NA
138	26	20	M	Filler	115	6	Robert	4	100.0	NA
138	26	20	M	Filler	115	6	fought	5	183.0	NA
138	26	20	M	Filler	115	6	the	6	116.0	NA
138	26	20	M	Filler	115	6	mosquitoes	7	135.0	NA
138	26	20	M	Filler	115	6	whined	8	99.0	NA
138	26	20	M	Filler	115	6	annoyingly.	9	101.0	NA
138	26	20	M	Question	115	6	NA	NA	2099.0	1
139	26	20	M	swets	15	1	The	1	177.0	NA
139	26	20	M	swets	15	1	sister	2	99.0	NA
139	26	20	M	swets	15	1	of	3	136.0	NA
139	26	20	M	swets	15	1	the	4	83.0	NA
139	26	20	M	swets	15	1	beautician	5	135.0	NA
139	26	20	M	swets	15	1	who	6	131.0	NA
139	26	20	M	swets	15	1	cut	7	333.0	NA
139	26	20	M	swets	15	1	herself	8	68.0	NA
139	26	20	M	swets	15	1	on	9	165.0	NA
139	26	20	M	swets	15	1	the	10	118.0	NA
139	26	20	M	swets	15	1	broken	11	133.0	NA
139	26	20	M	swets	15	1	glass	12	150.0	NA
139	26	20	M	swets	15	1	phoned	13	100.0	NA
139	26	20	M	swets	15	1	for	14	84.0	NA
139	26	20	M	swets	15	1	a	15	132.0	NA
139	26	20	M	swets	15	1	doctor.	16	67.0	NA
139	26	20	M	Question	15	1	NA	NA	1703.0	1
140	26	20	M	Filler	92	5	The	1	362.0	NA
140	26	20	M	Filler	92	5	personal	2	151.0	NA
140	26	20	M	Filler	92	5	trainer	3	131.0	NA
140	26	20	M	Filler	92	5	was	4	118.0	NA
140	26	20	M	Filler	92	5	popular	5	134.0	NA
140	26	20	M	Filler	92	5	among	6	132.0	NA
140	26	20	M	Filler	92	5	athletes	7	150.0	NA
140	26	20	M	Filler	92	5	after	8	335.0	NA
140	26	20	M	Filler	92	5	he	9	150.0	NA
140	26	20	M	Filler	92	5	helped	10	84.0	NA
140	26	20	M	Filler	92	5	the	11	184.0	NA
140	26	20	M	Filler	92	5	bodybuilder	12	167.0	NA
140	26	20	M	Filler	92	5	win	13	149.0	NA
140	26	20	M	Filler	92	5	the	14	165.0	NA
140	26	20	M	Filler	92	5	competition.	15	169.0	NA
140	26	20	M	Question	92	5	NA	NA	3104.0	0
141	26	20	M	Filler	44	4	The	1	30.0	NA
141	26	20	M	Filler	44	4	solicitor	2	65.0	NA
141	26	20	M	Filler	44	4	wearing	3	86.0	NA
141	26	20	M	Filler	44	4	the	4	185.0	NA
141	26	20	M	Filler	44	4	new	5	49.0	NA
141	26	20	M	Filler	44	4	tuxedo	6	68.0	NA
141	26	20	M	Filler	44	4	bothered	7	32.0	NA
141	26	20	M	Filler	44	4	a	8	16.0	NA
141	26	20	M	Filler	44	4	man	9	51.0	NA
141	26	20	M	Filler	44	4	from	10	99.0	NA
141	26	20	M	Filler	44	4	New	11	51.0	NA
141	26	20	M	Filler	44	4	York.	12	66.0	NA
141	26	20	M	Question	44	4	NA	NA	1251.0	1
142	26	20	M	swets	28	2	The	1	395.0	NA
142	26	20	M	swets	28	2	nephew	2	101.0	NA
142	26	20	M	swets	28	2	of	3	85.0	NA
142	26	20	M	swets	28	2	the	4	82.0	NA
142	26	20	M	swets	28	2	baroness	5	35.0	NA
142	26	20	M	swets	28	2	who	6	280.0	NA
142	26	20	M	swets	28	2	admired	7	68.0	NA
142	26	20	M	swets	28	2	herself	8	132.0	NA
142	26	20	M	swets	28	2	an	9	68.0	NA
142	26	20	M	swets	28	2	inordinate	10	50.0	NA
142	26	20	M	swets	28	2	amount	11	450.0	NA
142	26	20	M	swets	28	2	enjoyed	12	167.0	NA
142	26	20	M	swets	28	2	all	13	51.0	NA
142	26	20	M	swets	28	2	the	14	100.0	NA
142	26	20	M	swets	28	2	attention.	15	135.0	NA
142	26	20	M	Question	28	2	NA	NA	1398.0	1
143	26	20	M	Filler	86	5	The	1	78.0	NA
143	26	20	M	Filler	86	5	family's	2	134.0	NA
143	26	20	M	Filler	86	5	television	3	133.0	NA
143	26	20	M	Filler	86	5	stopped	4	99.0	NA
143	26	20	M	Filler	86	5	working	5	134.0	NA
143	26	20	M	Filler	86	5	two	6	84.0	NA
143	26	20	M	Filler	86	5	days	7	132.0	NA
143	26	20	M	Filler	86	5	after	8	148.0	NA
143	26	20	M	Filler	86	5	the	9	69.0	NA
143	26	20	M	Filler	86	5	warranty	10	99.0	NA
143	26	20	M	Filler	86	5	expired.	11	133.0	NA
143	26	20	M	Question	86	5	NA	NA	1102.0	0
