trial	subj	age	gender	stimulustype	item	condition	word	position	rt	correct
0	28	21	F	Filler	64	4	Because	1	312.0	NA
0	28	21	F	Filler	64	4	a	2	166.0	NA
0	28	21	F	Filler	64	4	fire	3	132.0	NA
0	28	21	F	Filler	64	4	alarm	4	101.0	NA
0	28	21	F	Filler	64	4	interrupted	5	149.0	NA
0	28	21	F	Filler	64	4	the	6	117.0	NA
0	28	21	F	Filler	64	4	exam	7	150.0	NA
0	28	21	F	Filler	64	4	the	8	184.0	NA
0	28	21	F	Filler	64	4	scores	9	131.0	NA
0	28	21	F	Filler	64	4	were	10	136.0	NA
0	28	21	F	Filler	64	4	disqualified.	11	131.0	NA
0	28	21	F	Question	64	4	NA	NA	1077.0	1
1	28	21	F	Filler	60	4	The	1	246.0	NA
1	28	21	F	Filler	60	4	newlyweds	2	99.0	NA
1	28	21	F	Filler	60	4	were	3	85.0	NA
1	28	21	F	Filler	60	4	nervous	4	164.0	NA
1	28	21	F	Filler	60	4	about	5	151.0	NA
1	28	21	F	Filler	60	4	their	6	166.0	NA
1	28	21	F	Filler	60	4	new	7	134.0	NA
1	28	21	F	Filler	60	4	life	8	182.0	NA
1	28	21	F	Filler	60	4	together.	9	284.0	NA
1	28	21	F	Question	60	4	NA	NA	945.0	1
2	28	21	F	Filler	85	5	The	1	261.0	NA
2	28	21	F	Filler	85	5	college	2	117.0	NA
2	28	21	F	Filler	85	5	students	3	134.0	NA
2	28	21	F	Filler	85	5	were	4	151.0	NA
2	28	21	F	Filler	85	5	upset	5	164.0	NA
2	28	21	F	Filler	85	5	that	6	168.0	NA
2	28	21	F	Filler	85	5	they	7	166.0	NA
2	28	21	F	Filler	85	5	had	8	152.0	NA
2	28	21	F	Filler	85	5	an	9	182.0	NA
2	28	21	F	Filler	85	5	exam	10	150.0	NA
2	28	21	F	Filler	85	5	the	11	252.0	NA
2	28	21	F	Filler	85	5	next	12	216.0	NA
2	28	21	F	Filler	85	5	day.	13	335.0	NA
2	28	21	F	Question	85	5	NA	NA	1375.0	1
3	28	21	F	swets	17	2	The	1	262.0	NA
3	28	21	F	swets	17	2	bank	2	165.0	NA
3	28	21	F	swets	17	2	manager	3	135.0	NA
3	28	21	F	swets	17	2	of	4	167.0	NA
3	28	21	F	swets	17	2	the	5	184.0	NA
3	28	21	F	swets	17	2	heiress	6	148.0	NA
3	28	21	F	swets	17	2	who	7	168.0	NA
3	28	21	F	swets	17	2	bankrupted	8	202.0	NA
3	28	21	F	swets	17	2	herself	9	202.0	NA
3	28	21	F	swets	17	2	last	10	332.0	NA
3	28	21	F	swets	17	2	year	11	317.0	NA
3	28	21	F	swets	17	2	still	12	301.0	NA
3	28	21	F	swets	17	2	made	13	248.0	NA
3	28	21	F	swets	17	2	risky	14	235.0	NA
3	28	21	F	swets	17	2	investments.	15	449.0	NA
3	28	21	F	Question	17	2	NA	NA	1744.0	1
4	28	21	F	Filler	138	7	While	1	329.0	NA
4	28	21	F	Filler	138	7	Pedro	2	134.0	NA
4	28	21	F	Filler	138	7	was	3	116.0	NA
4	28	21	F	Filler	138	7	swimming	4	149.0	NA
4	28	21	F	Filler	138	7	the	5	167.0	NA
4	28	21	F	Filler	138	7	lifeguard	6	634.0	NA
4	28	21	F	Filler	138	7	sat	7	185.0	NA
4	28	21	F	Filler	138	7	in	8	216.0	NA
4	28	21	F	Filler	138	7	his	9	234.0	NA
4	28	21	F	Filler	138	7	chair.	10	216.0	NA
4	28	21	F	Question	138	7	NA	NA	979.0	1
5	28	21	F	swets	23	2	The	1	496.0	NA
5	28	21	F	swets	23	2	father	2	117.0	NA
5	28	21	F	swets	23	2	of	3	100.0	NA
5	28	21	F	swets	23	2	the	4	133.0	NA
5	28	21	F	swets	23	2	ballerina	5	132.0	NA
5	28	21	F	swets	23	2	who	6	135.0	NA
5	28	21	F	swets	23	2	found	7	116.0	NA
5	28	21	F	swets	23	2	herself	8	199.0	NA
5	28	21	F	swets	23	2	in	9	168.0	NA
5	28	21	F	swets	23	2	a	10	197.0	NA
5	28	21	F	swets	23	2	lot	11	171.0	NA
5	28	21	F	swets	23	2	of	12	200.0	NA
5	28	21	F	swets	23	2	trouble	13	252.0	NA
5	28	21	F	swets	23	2	phoned	14	298.0	NA
5	28	21	F	swets	23	2	the	15	217.0	NA
5	28	21	F	swets	23	2	police.	16	200.0	NA
5	28	21	F	Question	23	2	NA	NA	5579.0	1
6	28	21	F	Filler	131	7	While	1	412.0	NA
6	28	21	F	Filler	131	7	Jamie	2	251.0	NA
6	28	21	F	Filler	131	7	dried	3	199.0	NA
6	28	21	F	Filler	131	7	off	4	202.0	NA
6	28	21	F	Filler	131	7	the	5	249.0	NA
6	28	21	F	Filler	131	7	table	6	184.0	NA
6	28	21	F	Filler	131	7	his	7	217.0	NA
6	28	21	F	Filler	131	7	sunglasses	8	750.0	NA
6	28	21	F	Filler	131	7	disappeared.	9	332.0	NA
6	28	21	F	Question	131	7	NA	NA	1075.0	1
7	28	21	F	swets	8	2	The	1	496.0	NA
7	28	21	F	swets	8	2	brother	2	251.0	NA
7	28	21	F	swets	8	2	of	3	349.0	NA
7	28	21	F	swets	8	2	the	4	300.0	NA
7	28	21	F	swets	8	2	seamstress	5	465.0	NA
7	28	21	F	swets	8	2	who	6	436.0	NA
7	28	21	F	swets	8	2	entertained	7	349.0	NA
7	28	21	F	swets	8	2	herself	8	267.0	NA
7	28	21	F	swets	8	2	most	9	1068.0	NA
7	28	21	F	swets	8	2	evenings	10	734.0	NA
7	28	21	F	swets	8	2	was	11	400.0	NA
7	28	21	F	swets	8	2	reading	12	298.0	NA
7	28	21	F	swets	8	2	a	13	302.0	NA
7	28	21	F	swets	8	2	book.	14	365.0	NA
7	28	21	F	Question	8	2	NA	NA	1895.0	1
8	28	21	F	Filler	140	7	The	1	979.0	NA
8	28	21	F	Filler	140	7	investigators	2	316.0	NA
8	28	21	F	Filler	140	7	asked	3	1133.0	NA
8	28	21	F	Filler	140	7	which	4	202.0	NA
8	28	21	F	Filler	140	7	mansion	5	183.0	NA
8	28	21	F	Filler	140	7	the	6	167.0	NA
8	28	21	F	Filler	140	7	owner	7	233.0	NA
8	28	21	F	Filler	140	7	sold	8	184.0	NA
8	28	21	F	Filler	140	7	and	9	233.0	NA
8	28	21	F	Filler	140	7	didn't	10	351.0	NA
8	28	21	F	Filler	140	7	repair	11	235.0	NA
8	28	21	F	Filler	140	7	ten	12	247.0	NA
8	28	21	F	Filler	140	7	years	13	218.0	NA
8	28	21	F	Filler	140	7	ago.	14	218.0	NA
8	28	21	F	Question	140	7	NA	NA	1641.0	1
9	28	21	F	Filler	43	4	The	1	328.0	NA
9	28	21	F	Filler	43	4	movie	2	135.0	NA
9	28	21	F	Filler	43	4	director	3	165.0	NA
9	28	21	F	Filler	43	4	refused	4	151.0	NA
9	28	21	F	Filler	43	4	to	5	134.0	NA
9	28	21	F	Filler	43	4	work	6	148.0	NA
9	28	21	F	Filler	43	4	with	7	151.0	NA
9	28	21	F	Filler	43	4	the	8	150.0	NA
9	28	21	F	Filler	43	4	producer	9	150.0	NA
9	28	21	F	Filler	43	4	again	10	200.0	NA
9	28	21	F	Filler	43	4	after	11	316.0	NA
9	28	21	F	Filler	43	4	winning	12	166.0	NA
9	28	21	F	Filler	43	4	the	13	150.0	NA
9	28	21	F	Filler	43	4	grand	14	200.0	NA
9	28	21	F	Filler	43	4	prize.	15	235.0	NA
9	28	21	F	Question	43	4	NA	NA	1741.0	1
10	28	21	F	Filler	142	7	The	1	329.0	NA
10	28	21	F	Filler	142	7	cats	2	133.0	NA
10	28	21	F	Filler	142	7	and	3	116.0	NA
10	28	21	F	Filler	142	7	dogs	4	133.0	NA
10	28	21	F	Filler	142	7	glared	5	149.0	NA
10	28	21	F	Filler	142	7	at	6	152.0	NA
10	28	21	F	Filler	142	7	each	7	168.0	NA
10	28	21	F	Filler	142	7	other	8	183.0	NA
10	28	21	F	Filler	142	7	warily.	9	217.0	NA
10	28	21	F	Question	142	7	NA	NA	976.0	1
11	28	21	F	Filler	50	4	The	1	297.0	NA
11	28	21	F	Filler	50	4	new	2	167.0	NA
11	28	21	F	Filler	50	4	language	3	131.0	NA
11	28	21	F	Filler	50	4	requirement	4	67.0	NA
11	28	21	F	Filler	50	4	made	5	334.0	NA
11	28	21	F	Filler	50	4	all	6	168.0	NA
11	28	21	F	Filler	50	4	the	7	152.0	NA
11	28	21	F	Filler	50	4	students	8	148.0	NA
11	28	21	F	Filler	50	4	say	9	200.0	NA
11	28	21	F	Filler	50	4	bad	10	351.0	NA
11	28	21	F	Filler	50	4	things	11	334.0	NA
11	28	21	F	Filler	50	4	about	12	284.0	NA
11	28	21	F	Filler	50	4	the	13	299.0	NA
11	28	21	F	Filler	50	4	dean	14	333.0	NA
11	28	21	F	Filler	50	4	of	15	267.0	NA
11	28	21	F	Filler	50	4	the	16	251.0	NA
11	28	21	F	Filler	50	4	college.	17	333.0	NA
11	28	21	F	Question	50	4	NA	NA	2310.0	1
12	28	21	F	swets	20	2	The	1	262.0	NA
12	28	21	F	swets	20	2	sister	2	134.0	NA
12	28	21	F	swets	20	2	of	3	148.0	NA
12	28	21	F	swets	20	2	the	4	100.0	NA
12	28	21	F	swets	20	2	count	5	151.0	NA
12	28	21	F	swets	20	2	who	6	134.0	NA
12	28	21	F	swets	20	2	crippled	7	135.0	NA
12	28	21	F	swets	20	2	himself	8	165.0	NA
12	28	21	F	swets	20	2	by	9	168.0	NA
12	28	21	F	swets	20	2	falling	10	217.0	NA
12	28	21	F	swets	20	2	off	11	201.0	NA
12	28	21	F	swets	20	2	a	12	231.0	NA
12	28	21	F	swets	20	2	horse	13	168.0	NA
12	28	21	F	swets	20	2	took	14	234.0	NA
12	28	21	F	swets	20	2	a	15	182.0	NA
12	28	21	F	swets	20	2	long	16	151.0	NA
12	28	21	F	swets	20	2	time	17	132.0	NA
12	28	21	F	swets	20	2	to	18	150.0	NA
12	28	21	F	swets	20	2	get	19	134.0	NA
12	28	21	F	swets	20	2	over	20	166.0	NA
12	28	21	F	swets	20	2	it.	21	219.0	NA
12	28	21	F	Question	20	2	NA	NA	1174.0	1
13	28	21	F	Filler	89	5	Jim	1	428.0	NA
13	28	21	F	Filler	89	5	watered	2	150.0	NA
13	28	21	F	Filler	89	5	the	3	133.0	NA
13	28	21	F	Filler	89	5	tropical	4	135.0	NA
13	28	21	F	Filler	89	5	plants	5	133.0	NA
13	28	21	F	Filler	89	5	of	6	168.0	NA
13	28	21	F	Filler	89	5	his	7	214.0	NA
13	28	21	F	Filler	89	5	neighbor	8	169.0	NA
13	28	21	F	Filler	89	5	because	9	183.0	NA
13	28	21	F	Filler	89	5	she	10	184.0	NA
13	28	21	F	Filler	89	5	had	11	233.0	NA
13	28	21	F	Filler	89	5	gone	12	184.0	NA
13	28	21	F	Filler	89	5	out	13	152.0	NA
13	28	21	F	Filler	89	5	of	14	149.0	NA
13	28	21	F	Filler	89	5	town	15	150.0	NA
13	28	21	F	Filler	89	5	for	16	383.0	NA
13	28	21	F	Filler	89	5	a	17	167.0	NA
13	28	21	F	Filler	89	5	few	18	299.0	NA
13	28	21	F	Filler	89	5	days.	19	300.0	NA
13	28	21	F	Question	89	5	NA	NA	2242.0	1
14	28	21	F	Filler	92	5	The	1	180.0	NA
14	28	21	F	Filler	92	5	personal	2	149.0	NA
14	28	21	F	Filler	92	5	trainer	3	181.0	NA
14	28	21	F	Filler	92	5	was	4	152.0	NA
14	28	21	F	Filler	92	5	popular	5	165.0	NA
14	28	21	F	Filler	92	5	among	6	152.0	NA
14	28	21	F	Filler	92	5	athletes	7	166.0	NA
14	28	21	F	Filler	92	5	after	8	150.0	NA
14	28	21	F	Filler	92	5	he	9	167.0	NA
14	28	21	F	Filler	92	5	helped	10	182.0	NA
14	28	21	F	Filler	92	5	the	11	134.0	NA
14	28	21	F	Filler	92	5	bodybuilder	12	166.0	NA
14	28	21	F	Filler	92	5	win	13	167.0	NA
14	28	21	F	Filler	92	5	the	14	168.0	NA
14	28	21	F	Filler	92	5	competition.	15	165.0	NA
14	28	21	F	Question	92	5	NA	NA	1611.0	0
15	28	21	F	Filler	78	5	The	1	96.0	NA
15	28	21	F	Filler	78	5	customer	2	133.0	NA
15	28	21	F	Filler	78	5	complimented	3	134.0	NA
15	28	21	F	Filler	78	5	the	4	167.0	NA
15	28	21	F	Filler	78	5	store	5	149.0	NA
15	28	21	F	Filler	78	5	keeper	6	168.0	NA
15	28	21	F	Filler	78	5	with	7	149.0	NA
15	28	21	F	Filler	78	5	the	8	134.0	NA
15	28	21	F	Filler	78	5	new	9	135.0	NA
15	28	21	F	Filler	78	5	stock.	10	150.0	NA
15	28	21	F	Question	78	5	NA	NA	1060.0	1
16	28	21	F	Filler	79	5	Although	1	62.0	NA
16	28	21	F	Filler	79	5	the	2	117.0	NA
16	28	21	F	Filler	79	5	mechanic	3	100.0	NA
16	28	21	F	Filler	79	5	said	4	133.0	NA
16	28	21	F	Filler	79	5	the	5	165.0	NA
16	28	21	F	Filler	79	5	job	6	134.0	NA
16	28	21	F	Filler	79	5	would	7	168.0	NA
16	28	21	F	Filler	79	5	take	8	135.0	NA
16	28	21	F	Filler	79	5	four	9	184.0	NA
16	28	21	F	Filler	79	5	days	10	117.0	NA
16	28	21	F	Filler	79	5	the	11	133.0	NA
16	28	21	F	Filler	79	5	client	12	151.0	NA
16	28	21	F	Filler	79	5	didn't	13	166.0	NA
16	28	21	F	Filler	79	5	receive	14	201.0	NA
16	28	21	F	Filler	79	5	her	15	166.0	NA
16	28	21	F	Filler	79	5	car	16	184.0	NA
16	28	21	F	Filler	79	5	for	17	182.0	NA
16	28	21	F	Filler	79	5	six	18	167.0	NA
16	28	21	F	Filler	79	5	weeks.	19	300.0	NA
16	28	21	F	Question	79	5	NA	NA	1142.0	1
17	28	21	F	swets	3	3	The	1	313.0	NA
17	28	21	F	swets	3	3	secretary	2	165.0	NA
17	28	21	F	swets	3	3	of	3	384.0	NA
17	28	21	F	swets	3	3	the	4	182.0	NA
17	28	21	F	swets	3	3	salesman	5	168.0	NA
17	28	21	F	swets	3	3	who	6	135.0	NA
17	28	21	F	swets	3	3	amused	7	131.0	NA
17	28	21	F	swets	3	3	herself	8	150.0	NA
17	28	21	F	swets	3	3	quite	9	102.0	NA
17	28	21	F	swets	3	3	a	10	166.0	NA
17	28	21	F	swets	3	3	bit	11	134.0	NA
17	28	21	F	swets	3	3	was	12	65.0	NA
17	28	21	F	swets	3	3	writing	13	85.0	NA
17	28	21	F	swets	3	3	a	14	618.0	NA
17	28	21	F	swets	3	3	letter	15	234.0	NA
17	28	21	F	swets	3	3	to	16	201.0	NA
17	28	21	F	swets	3	3	the	17	298.0	NA
17	28	21	F	swets	3	3	editor.	18	217.0	NA
17	28	21	F	Question	3	3	NA	NA	1406.0	1
18	28	21	F	Filler	130	7	While	1	178.0	NA
18	28	21	F	Filler	130	7	Margo	2	150.0	NA
18	28	21	F	Filler	130	7	bathed	3	84.0	NA
18	28	21	F	Filler	130	7	the	4	102.0	NA
18	28	21	F	Filler	130	7	dog	5	165.0	NA
18	28	21	F	Filler	130	7	barked	6	84.0	NA
18	28	21	F	Filler	130	7	in	7	85.0	NA
18	28	21	F	Filler	130	7	the	8	82.0	NA
18	28	21	F	Filler	130	7	yard.	9	232.0	NA
18	28	21	F	Question	130	7	NA	NA	979.0	1
19	28	21	F	swets	1	1	The	1	144.0	NA
19	28	21	F	swets	1	1	sister	2	152.0	NA
19	28	21	F	swets	1	1	of	3	117.0	NA
19	28	21	F	swets	1	1	the	4	182.0	NA
19	28	21	F	swets	1	1	actress	5	149.0	NA
19	28	21	F	swets	1	1	who	6	120.0	NA
19	28	21	F	swets	1	1	called	7	167.0	NA
19	28	21	F	swets	1	1	attention	8	117.0	NA
19	28	21	F	swets	1	1	to	9	150.0	NA
19	28	21	F	swets	1	1	herself	10	149.0	NA
19	28	21	F	swets	1	1	on	11	166.0	NA
19	28	21	F	swets	1	1	the	12	167.0	NA
19	28	21	F	swets	1	1	balcony	13	183.0	NA
19	28	21	F	swets	1	1	was	14	185.0	NA
19	28	21	F	swets	1	1	under	15	198.0	NA
19	28	21	F	swets	1	1	investigation.	16	184.0	NA
19	28	21	F	Question	1	1	NA	NA	1244.0	0
20	28	21	F	Filler	63	4	The	1	11.0	NA
20	28	21	F	Filler	63	4	bride	2	151.0	NA
20	28	21	F	Filler	63	4	was	3	117.0	NA
20	28	21	F	Filler	63	4	devastated	4	99.0	NA
20	28	21	F	Filler	63	4	to	5	117.0	NA
20	28	21	F	Filler	63	4	lose	6	116.0	NA
20	28	21	F	Filler	63	4	her	7	151.0	NA
20	28	21	F	Filler	63	4	gold	8	133.0	NA
20	28	21	F	Filler	63	4	ring	9	117.0	NA
20	28	21	F	Filler	63	4	with	10	132.0	NA
20	28	21	F	Filler	63	4	a	11	119.0	NA
20	28	21	F	Filler	63	4	gleaming	12	131.0	NA
20	28	21	F	Filler	63	4	diamond	13	119.0	NA
20	28	21	F	Filler	63	4	in	14	117.0	NA
20	28	21	F	Filler	63	4	the	15	115.0	NA
20	28	21	F	Filler	63	4	middle.	16	168.0	NA
20	28	21	F	Question	63	4	NA	NA	1410.0	1
21	28	21	F	Filler	53	4	The	1	295.0	NA
21	28	21	F	Filler	53	4	clay	2	85.0	NA
21	28	21	F	Filler	53	4	pot	3	67.0	NA
21	28	21	F	Filler	53	4	was	4	81.0	NA
21	28	21	F	Filler	53	4	full	5	86.0	NA
21	28	21	F	Filler	53	4	of	6	49.0	NA
21	28	21	F	Filler	53	4	gold	7	100.0	NA
21	28	21	F	Filler	53	4	coins	8	184.0	NA
21	28	21	F	Filler	53	4	and	9	167.0	NA
21	28	21	F	Filler	53	4	the	10	200.0	NA
21	28	21	F	Filler	53	4	thief	11	135.0	NA
21	28	21	F	Filler	53	4	knew	12	134.0	NA
21	28	21	F	Filler	53	4	he	13	133.0	NA
21	28	21	F	Filler	53	4	had	14	164.0	NA
21	28	21	F	Filler	53	4	finally	15	185.0	NA
21	28	21	F	Filler	53	4	hit	16	151.0	NA
21	28	21	F	Filler	53	4	the	17	249.0	NA
21	28	21	F	Filler	53	4	jackpot.	18	250.0	NA
21	28	21	F	Question	53	4	NA	NA	1041.0	1
22	28	21	F	Filler	105	5	The	1	195.0	NA
22	28	21	F	Filler	105	5	actors	2	118.0	NA
22	28	21	F	Filler	105	5	rehearsed	3	114.0	NA
22	28	21	F	Filler	105	5	the	4	85.0	NA
22	28	21	F	Filler	105	5	play	5	99.0	NA
22	28	21	F	Filler	105	5	so	6	99.0	NA
22	28	21	F	Filler	105	5	much	7	100.0	NA
22	28	21	F	Filler	105	5	that	8	169.0	NA
22	28	21	F	Filler	105	5	they	9	117.0	NA
22	28	21	F	Filler	105	5	became	10	116.0	NA
22	28	21	F	Filler	105	5	bored	11	217.0	NA
22	28	21	F	Filler	105	5	with	12	232.0	NA
22	28	21	F	Filler	105	5	it.	13	251.0	NA
22	28	21	F	Question	105	5	NA	NA	1025.0	1
23	28	21	F	swets	34	1	The	1	160.0	NA
23	28	21	F	swets	34	1	waitress	2	133.0	NA
23	28	21	F	swets	34	1	of	3	103.0	NA
23	28	21	F	swets	34	1	the	4	132.0	NA
23	28	21	F	swets	34	1	woman	5	100.0	NA
23	28	21	F	swets	34	1	who	6	117.0	NA
23	28	21	F	swets	34	1	considered	7	150.0	NA
23	28	21	F	swets	34	1	herself	8	133.0	NA
23	28	21	F	swets	34	1	a	9	148.0	NA
23	28	21	F	swets	34	1	natural	10	152.0	NA
23	28	21	F	swets	34	1	beauty	11	183.0	NA
23	28	21	F	swets	34	1	spilled	12	201.0	NA
23	28	21	F	swets	34	1	the	13	747.0	NA
23	28	21	F	swets	34	1	drinks.	14	187.0	NA
23	28	21	F	Question	34	1	NA	NA	4913.0	1
24	28	21	F	Filler	68	4	The	1	694.0	NA
24	28	21	F	Filler	68	4	scientist	2	116.0	NA
24	28	21	F	Filler	68	4	published	3	70.0	NA
24	28	21	F	Filler	68	4	a	4	150.0	NA
24	28	21	F	Filler	68	4	paper	5	100.0	NA
24	28	21	F	Filler	68	4	in	6	133.0	NA
24	28	21	F	Filler	68	4	the	7	133.0	NA
24	28	21	F	Filler	68	4	journal	8	134.0	NA
24	28	21	F	Filler	68	4	of	9	467.0	NA
24	28	21	F	Filler	68	4	the	10	233.0	NA
24	28	21	F	Filler	68	4	foreign	11	168.0	NA
24	28	21	F	Filler	68	4	organization.	12	167.0	NA
24	28	21	F	Question	68	4	NA	NA	2261.0	0
25	28	21	F	swets	10	1	The	1	146.0	NA
25	28	21	F	swets	10	1	aunt	2	149.0	NA
25	28	21	F	swets	10	1	of	3	134.0	NA
25	28	21	F	swets	10	1	the	4	118.0	NA
25	28	21	F	swets	10	1	nun	5	168.0	NA
25	28	21	F	swets	10	1	who	6	184.0	NA
25	28	21	F	swets	10	1	lost	7	167.0	NA
25	28	21	F	swets	10	1	herself	8	215.0	NA
25	28	21	F	swets	10	1	in	9	368.0	NA
25	28	21	F	swets	10	1	thought	10	431.0	NA
25	28	21	F	swets	10	1	was	11	335.0	NA
25	28	21	F	swets	10	1	disturbed	12	316.0	NA
25	28	21	F	swets	10	1	by	13	217.0	NA
25	28	21	F	swets	10	1	the	14	283.0	NA
25	28	21	F	swets	10	1	noise.	15	215.0	NA
25	28	21	F	Question	10	1	NA	NA	1276.0	0
26	28	21	F	Filler	96	5	The	1	196.0	NA
26	28	21	F	Filler	96	5	evil	2	149.0	NA
26	28	21	F	Filler	96	5	man	3	317.0	NA
26	28	21	F	Filler	96	5	watched	4	149.0	NA
26	28	21	F	Filler	96	5	the	5	151.0	NA
26	28	21	F	Filler	96	5	doorway	6	168.0	NA
26	28	21	F	Filler	96	5	of	7	182.0	NA
26	28	21	F	Filler	96	5	the	8	185.0	NA
26	28	21	F	Filler	96	5	bar	9	217.0	NA
26	28	21	F	Filler	96	5	every	10	199.0	NA
26	28	21	F	Filler	96	5	Friday	11	185.0	NA
26	28	21	F	Filler	96	5	night.	12	282.0	NA
26	28	21	F	Question	96	5	NA	NA	910.0	1
27	28	21	F	Filler	65	4	Even	1	195.0	NA
27	28	21	F	Filler	65	4	though	2	267.0	NA
27	28	21	F	Filler	65	4	the	3	115.0	NA
27	28	21	F	Filler	65	4	goalie	4	200.0	NA
27	28	21	F	Filler	65	4	had	5	184.0	NA
27	28	21	F	Filler	65	4	a	6	202.0	NA
27	28	21	F	Filler	65	4	bad	7	217.0	NA
27	28	21	F	Filler	65	4	cold	8	233.0	NA
27	28	21	F	Filler	65	4	the	9	218.0	NA
27	28	21	F	Filler	65	4	team	10	199.0	NA
27	28	21	F	Filler	65	4	was	11	233.0	NA
27	28	21	F	Filler	65	4	preparing	12	232.0	NA
27	28	21	F	Filler	65	4	for	13	268.0	NA
27	28	21	F	Filler	65	4	the	14	316.0	NA
27	28	21	F	Filler	65	4	tournament.	15	334.0	NA
27	28	21	F	Question	65	4	NA	NA	1210.0	1
28	28	21	F	swets	33	3	The	1	97.0	NA
28	28	21	F	swets	33	3	maid	2	181.0	NA
28	28	21	F	swets	33	3	of	3	335.0	NA
28	28	21	F	swets	33	3	the	4	133.0	NA
28	28	21	F	swets	33	3	actor	5	151.0	NA
28	28	21	F	swets	33	3	who	6	133.0	NA
28	28	21	F	swets	33	3	did	7	150.0	NA
28	28	21	F	swets	33	3	not	8	232.0	NA
28	28	21	F	swets	33	3	like	9	153.0	NA
28	28	21	F	swets	33	3	herself	10	150.0	NA
28	28	21	F	swets	33	3	very	11	165.0	NA
28	28	21	F	swets	33	3	much	12	184.0	NA
28	28	21	F	swets	33	3	caught	13	184.0	NA
28	28	21	F	swets	33	3	the	14	201.0	NA
28	28	21	F	swets	33	3	armed	15	167.0	NA
28	28	21	F	swets	33	3	robber.	16	182.0	NA
28	28	21	F	Question	33	3	NA	NA	2795.0	0
29	28	21	F	Filler	45	4	The	1	62.0	NA
29	28	21	F	Filler	45	4	plumber	2	84.0	NA
29	28	21	F	Filler	45	4	repaired	3	117.0	NA
29	28	21	F	Filler	45	4	the	4	119.0	NA
29	28	21	F	Filler	45	4	sink	5	117.0	NA
29	28	21	F	Filler	45	4	of	6	166.0	NA
29	28	21	F	Filler	45	4	the	7	116.0	NA
29	28	21	F	Filler	45	4	tenant	8	118.0	NA
29	28	21	F	Filler	45	4	because	9	164.0	NA
29	28	21	F	Filler	45	4	he	10	169.0	NA
29	28	21	F	Filler	45	4	had	11	199.0	NA
29	28	21	F	Filler	45	4	just	12	248.0	NA
29	28	21	F	Filler	45	4	moved	13	419.0	NA
29	28	21	F	Filler	45	4	in.	14	233.0	NA
29	28	21	F	Question	45	4	NA	NA	906.0	1
30	28	21	F	Filler	47	4	The	1	12.0	NA
30	28	21	F	Filler	47	4	boys	2	151.0	NA
30	28	21	F	Filler	47	4	all	3	167.0	NA
30	28	21	F	Filler	47	4	admired	4	149.0	NA
30	28	21	F	Filler	47	4	the	5	167.0	NA
30	28	21	F	Filler	47	4	singer	6	182.0	NA
30	28	21	F	Filler	47	4	of	7	201.0	NA
30	28	21	F	Filler	47	4	the	8	150.0	NA
30	28	21	F	Filler	47	4	song	9	116.0	NA
30	28	21	F	Filler	47	4	with	10	250.0	NA
30	28	21	F	Filler	47	4	the	11	250.0	NA
30	28	21	F	Filler	47	4	long	12	134.0	NA
30	28	21	F	Filler	47	4	eyelashes.	13	199.0	NA
30	28	21	F	Question	47	4	NA	NA	844.0	1
31	28	21	F	Filler	106	5	On	1	29.0	NA
31	28	21	F	Filler	106	5	the	2	115.0	NA
31	28	21	F	Filler	106	5	last	3	132.0	NA
31	28	21	F	Filler	106	5	night	4	119.0	NA
31	28	21	F	Filler	106	5	of	5	266.0	NA
31	28	21	F	Filler	106	5	summer	6	135.0	NA
31	28	21	F	Filler	106	5	camp	7	232.0	NA
31	28	21	F	Filler	106	5	the	8	184.0	NA
31	28	21	F	Filler	106	5	counselors	9	184.0	NA
31	28	21	F	Filler	106	5	let	10	215.0	NA
31	28	21	F	Filler	106	5	the	11	282.0	NA
31	28	21	F	Filler	106	5	children	12	251.0	NA
31	28	21	F	Filler	106	5	stay	13	302.0	NA
31	28	21	F	Filler	106	5	up	14	250.0	NA
31	28	21	F	Filler	106	5	until	15	283.0	NA
31	28	21	F	Filler	106	5	midnight.	16	266.0	NA
31	28	21	F	Question	106	5	NA	NA	1510.0	1
32	28	21	F	Filler	42	4	After	1	29.0	NA
32	28	21	F	Filler	42	4	dinner	2	115.0	NA
32	28	21	F	Filler	42	4	the	3	117.0	NA
32	28	21	F	Filler	42	4	children	4	136.0	NA
32	28	21	F	Filler	42	4	gathered	5	152.0	NA
32	28	21	F	Filler	42	4	in	6	233.0	NA
32	28	21	F	Filler	42	4	a	7	198.0	NA
32	28	21	F	Filler	42	4	circle	8	200.0	NA
32	28	21	F	Filler	42	4	to	9	217.0	NA
32	28	21	F	Filler	42	4	listen	10	250.0	NA
32	28	21	F	Filler	42	4	to	11	218.0	NA
32	28	21	F	Filler	42	4	their	12	216.0	NA
32	28	21	F	Filler	42	4	grandmother's	13	217.0	NA
32	28	21	F	Filler	42	4	stories	14	251.0	NA
32	28	21	F	Filler	42	4	about	15	201.0	NA
32	28	21	F	Filler	42	4	the	16	199.0	NA
32	28	21	F	Filler	42	4	good	17	200.0	NA
32	28	21	F	Filler	42	4	old	18	200.0	NA
32	28	21	F	Filler	42	4	days.	19	198.0	NA
32	28	21	F	Question	42	4	NA	NA	944.0	1
33	28	21	F	Filler	119	6	Everybody	1	295.0	NA
33	28	21	F	Filler	119	6	is	2	101.0	NA
33	28	21	F	Filler	119	6	wondering	3	132.0	NA
33	28	21	F	Filler	119	6	which	4	133.0	NA
33	28	21	F	Filler	119	6	software	5	218.0	NA
33	28	21	F	Filler	119	6	Gary	6	84.0	NA
33	28	21	F	Filler	119	6	installed	7	517.0	NA
33	28	21	F	Filler	119	6	without	8	235.0	NA
33	28	21	F	Filler	119	6	buying	9	48.0	NA
33	28	21	F	Filler	119	6	last	10	571.0	NA
33	28	21	F	Filler	119	6	June.	11	333.0	NA
33	28	21	F	Question	119	6	NA	NA	1210.0	1
34	28	21	F	Filler	83	5	The	1	29.0	NA
34	28	21	F	Filler	83	5	passengers	2	1085.0	NA
34	28	21	F	Filler	83	5	screamed	3	68.0	NA
34	28	21	F	Filler	83	5	as	4	149.0	NA
34	28	21	F	Filler	83	5	the	5	68.0	NA
34	28	21	F	Filler	83	5	plane	6	133.0	NA
34	28	21	F	Filler	83	5	dipped	7	101.0	NA
34	28	21	F	Filler	83	5	and	8	100.0	NA
34	28	21	F	Filler	83	5	the	9	83.0	NA
34	28	21	F	Filler	83	5	pilots	10	98.0	NA
34	28	21	F	Filler	83	5	said	11	86.0	NA
34	28	21	F	Filler	83	5	their	12	81.0	NA
34	28	21	F	Filler	83	5	prayers	13	101.0	NA
34	28	21	F	Filler	83	5	quietly.	14	100.0	NA
34	28	21	F	Question	83	5	NA	NA	2644.0	1
35	28	21	F	Filler	58	4	The	1	246.0	NA
35	28	21	F	Filler	58	4	white	2	99.0	NA
35	28	21	F	Filler	58	4	dog	3	968.0	NA
35	28	21	F	Filler	58	4	bit	4	166.0	NA
35	28	21	F	Filler	58	4	the	5	168.0	NA
35	28	21	F	Filler	58	4	ankle	6	415.0	NA
35	28	21	F	Filler	58	4	of	7	118.0	NA
35	28	21	F	Filler	58	4	the	8	134.0	NA
35	28	21	F	Filler	58	4	child.	9	132.0	NA
35	28	21	F	Question	58	4	NA	NA	679.0	1
36	28	21	F	swets	28	1	The	1	29.0	NA
36	28	21	F	swets	28	1	sister	2	50.0	NA
36	28	21	F	swets	28	1	of	3	84.0	NA
36	28	21	F	swets	28	1	the	4	50.0	NA
36	28	21	F	swets	28	1	baroness	5	67.0	NA
36	28	21	F	swets	28	1	who	6	64.0	NA
36	28	21	F	swets	28	1	admired	7	117.0	NA
36	28	21	F	swets	28	1	herself	8	85.0	NA
36	28	21	F	swets	28	1	an	9	166.0	NA
36	28	21	F	swets	28	1	inordinate	10	266.0	NA
36	28	21	F	swets	28	1	amount	11	268.0	NA
36	28	21	F	swets	28	1	enjoyed	12	249.0	NA
36	28	21	F	swets	28	1	all	13	203.0	NA
36	28	21	F	swets	28	1	the	14	184.0	NA
36	28	21	F	swets	28	1	attention.	15	314.0	NA
36	28	21	F	Question	28	1	NA	NA	1695.0	0
37	28	21	F	Filler	136	7	While	1	47.0	NA
37	28	21	F	Filler	136	7	Mark	2	165.0	NA
37	28	21	F	Filler	136	7	and	3	166.0	NA
37	28	21	F	Filler	136	7	Jenny	4	149.0	NA
37	28	21	F	Filler	136	7	were	5	155.0	NA
37	28	21	F	Filler	136	7	cuddling	6	132.0	NA
37	28	21	F	Filler	136	7	the	7	152.0	NA
37	28	21	F	Filler	136	7	older	8	149.0	NA
37	28	21	F	Filler	136	7	dogs	9	150.0	NA
37	28	21	F	Filler	136	7	the	10	118.0	NA
37	28	21	F	Filler	136	7	puppies	11	215.0	NA
37	28	21	F	Filler	136	7	nipped	12	151.0	NA
37	28	21	F	Filler	136	7	at	13	200.0	NA
37	28	21	F	Filler	136	7	their	14	233.0	NA
37	28	21	F	Filler	136	7	feet.	15	233.0	NA
37	28	21	F	Question	136	7	NA	NA	2512.0	0
38	28	21	F	Filler	41	4	While	1	262.0	NA
38	28	21	F	Filler	41	4	the	2	117.0	NA
38	28	21	F	Filler	41	4	babysitter	3	132.0	NA
38	28	21	F	Filler	41	4	watched	4	185.0	NA
38	28	21	F	Filler	41	4	soap	5	133.0	NA
38	28	21	F	Filler	41	4	operas	6	168.0	NA
38	28	21	F	Filler	41	4	the	7	182.0	NA
38	28	21	F	Filler	41	4	child	8	168.0	NA
38	28	21	F	Filler	41	4	poured	9	199.0	NA
38	28	21	F	Filler	41	4	honey	10	284.0	NA
38	28	21	F	Filler	41	4	all	11	302.0	NA
38	28	21	F	Filler	41	4	over	12	215.0	NA
38	28	21	F	Filler	41	4	the	13	201.0	NA
38	28	21	F	Filler	41	4	floor.	14	234.0	NA
38	28	21	F	Question	41	4	NA	NA	1041.0	1
39	28	21	F	Filler	39	4	The	1	379.0	NA
39	28	21	F	Filler	39	4	overweight	2	100.0	NA
39	28	21	F	Filler	39	4	aunt	3	67.0	NA
39	28	21	F	Filler	39	4	decided	4	101.0	NA
39	28	21	F	Filler	39	4	to	5	118.0	NA
39	28	21	F	Filler	39	4	make	6	131.0	NA
39	28	21	F	Filler	39	4	cookies	7	85.0	NA
39	28	21	F	Filler	39	4	and	8	116.0	NA
39	28	21	F	Filler	39	4	cupcakes	9	84.0	NA
39	28	21	F	Filler	39	4	for	10	83.0	NA
39	28	21	F	Filler	39	4	the	11	133.0	NA
39	28	21	F	Filler	39	4	dinner	12	100.0	NA
39	28	21	F	Filler	39	4	party.	13	66.0	NA
39	28	21	F	Question	39	4	NA	NA	908.0	1
40	28	21	F	Filler	82	5	The	1	1647.0	NA
40	28	21	F	Filler	82	5	patient's	2	150.0	NA
40	28	21	F	Filler	82	5	seizures	3	234.0	NA
40	28	21	F	Filler	82	5	appeared	4	384.0	NA
40	28	21	F	Filler	82	5	to	5	399.0	NA
40	28	21	F	Filler	82	5	have	6	331.0	NA
40	28	21	F	Filler	82	5	been	7	269.0	NA
40	28	21	F	Filler	82	5	eliminated	8	383.0	NA
40	28	21	F	Filler	82	5	by	9	418.0	NA
40	28	21	F	Filler	82	5	the	10	266.0	NA
40	28	21	F	Filler	82	5	surgery.	11	284.0	NA
40	28	21	F	Question	82	5	NA	NA	994.0	1
41	28	21	F	Filler	90	5	The	1	261.0	NA
41	28	21	F	Filler	90	5	artist	2	83.0	NA
41	28	21	F	Filler	90	5	was	3	101.0	NA
41	28	21	F	Filler	90	5	not	4	83.0	NA
41	28	21	F	Filler	90	5	satisfied	5	84.0	NA
41	28	21	F	Filler	90	5	with	6	99.0	NA
41	28	21	F	Filler	90	5	his	7	118.0	NA
41	28	21	F	Filler	90	5	painting	8	116.0	NA
41	28	21	F	Filler	90	5	because	9	134.0	NA
41	28	21	F	Filler	90	5	the	10	103.0	NA
41	28	21	F	Filler	90	5	shading	11	83.0	NA
41	28	21	F	Filler	90	5	was	12	116.0	NA
41	28	21	F	Filler	90	5	off.	13	116.0	NA
41	28	21	F	Question	90	5	NA	NA	793.0	0
42	28	21	F	Filler	49	4	The	1	212.0	NA
42	28	21	F	Filler	49	4	construction	2	83.0	NA
42	28	21	F	Filler	49	4	worker	3	66.0	NA
42	28	21	F	Filler	49	4	sued	4	69.0	NA
42	28	21	F	Filler	49	4	the	5	66.0	NA
42	28	21	F	Filler	49	4	son	6	101.0	NA
42	28	21	F	Filler	49	4	of	7	116.0	NA
42	28	21	F	Filler	49	4	that	8	168.0	NA
42	28	21	F	Filler	49	4	greedy	9	99.0	NA
42	28	21	F	Filler	49	4	banker.	10	116.0	NA
42	28	21	F	Question	49	4	NA	NA	1510.0	1
43	28	21	F	swets	21	3	The	1	228.0	NA
43	28	21	F	swets	21	3	wife	2	117.0	NA
43	28	21	F	swets	21	3	of	3	84.0	NA
43	28	21	F	swets	21	3	the	4	116.0	NA
43	28	21	F	swets	21	3	janitor	5	101.0	NA
43	28	21	F	swets	21	3	who	6	116.0	NA
43	28	21	F	swets	21	3	educated	7	135.0	NA
43	28	21	F	swets	21	3	herself	8	116.0	NA
43	28	21	F	swets	21	3	at	9	118.0	NA
43	28	21	F	swets	21	3	night	10	150.0	NA
43	28	21	F	swets	21	3	loved	11	118.0	NA
43	28	21	F	swets	21	3	going	12	132.0	NA
43	28	21	F	swets	21	3	to	13	116.0	NA
43	28	21	F	swets	21	3	the	14	135.0	NA
43	28	21	F	swets	21	3	theatre.	15	116.0	NA
43	28	21	F	Question	21	3	NA	NA	1226.0	1
44	28	21	F	Filler	101	5	The	1	197.0	NA
44	28	21	F	Filler	101	5	friendly	2	132.0	NA
44	28	21	F	Filler	101	5	woman	3	84.0	NA
44	28	21	F	Filler	101	5	was	4	84.0	NA
44	28	21	F	Filler	101	5	insulted	5	99.0	NA
44	28	21	F	Filler	101	5	by	6	102.0	NA
44	28	21	F	Filler	101	5	the	7	100.0	NA
44	28	21	F	Filler	101	5	rude	8	99.0	NA
44	28	21	F	Filler	101	5	stranger	9	133.0	NA
44	28	21	F	Filler	101	5	because	10	133.0	NA
44	28	21	F	Filler	101	5	he	11	133.0	NA
44	28	21	F	Filler	101	5	didn't	12	135.0	NA
44	28	21	F	Filler	101	5	smile	13	166.0	NA
44	28	21	F	Filler	101	5	at	14	351.0	NA
44	28	21	F	Filler	101	5	her.	15	233.0	NA
44	28	21	F	Question	101	5	NA	NA	2411.0	0
45	28	21	F	Filler	55	4	The	1	1579.0	NA
45	28	21	F	Filler	55	4	people	2	66.0	NA
45	28	21	F	Filler	55	4	certainly	3	51.0	NA
45	28	21	F	Filler	55	4	admired	4	67.0	NA
45	28	21	F	Filler	55	4	the	5	66.0	NA
45	28	21	F	Filler	55	4	wife	6	132.0	NA
45	28	21	F	Filler	55	4	of	7	319.0	NA
45	28	21	F	Filler	55	4	the	8	336.0	NA
45	28	21	F	Filler	55	4	janitor	9	132.0	NA
45	28	21	F	Filler	55	4	because	10	217.0	NA
45	28	21	F	Filler	55	4	she	11	183.0	NA
45	28	21	F	Filler	55	4	educated	12	199.0	NA
45	28	21	F	Filler	55	4	herself	13	216.0	NA
45	28	21	F	Filler	55	4	at	14	217.0	NA
45	28	21	F	Filler	55	4	night.	15	267.0	NA
45	28	21	F	Question	55	4	NA	NA	1149.0	1
46	28	21	F	swets	27	3	The	1	430.0	NA
46	28	21	F	swets	27	3	sister	2	147.0	NA
46	28	21	F	swets	27	3	of	3	119.0	NA
46	28	21	F	swets	27	3	the	4	131.0	NA
46	28	21	F	swets	27	3	butcher	5	168.0	NA
46	28	21	F	swets	27	3	who	6	151.0	NA
46	28	21	F	swets	27	3	invited	7	199.0	NA
46	28	21	F	swets	27	3	herself	8	167.0	NA
46	28	21	F	swets	27	3	to	9	249.0	NA
46	28	21	F	swets	27	3	the	10	218.0	NA
46	28	21	F	swets	27	3	party	11	216.0	NA
46	28	21	F	swets	27	3	enjoyed	12	232.0	NA
46	28	21	F	swets	27	3	it	13	201.0	NA
46	28	21	F	swets	27	3	quite	14	318.0	NA
46	28	21	F	swets	27	3	a	15	317.0	NA
46	28	21	F	swets	27	3	bit.	16	167.0	NA
46	28	21	F	Question	27	3	NA	NA	1660.0	1
47	28	21	F	Filler	124	6	The	1	77.0	NA
47	28	21	F	Filler	124	6	mothers	2	135.0	NA
47	28	21	F	Filler	124	6	and	3	166.0	NA
47	28	21	F	Filler	124	6	teachers	4	100.0	NA
47	28	21	F	Filler	124	6	played	5	602.0	NA
47	28	21	F	Filler	124	6	tennis	6	184.0	NA
47	28	21	F	Filler	124	6	after	7	367.0	NA
47	28	21	F	Filler	124	6	the	8	333.0	NA
47	28	21	F	Filler	124	6	kids	9	234.0	NA
47	28	21	F	Filler	124	6	left.	10	134.0	NA
47	28	21	F	Question	124	6	NA	NA	1009.0	1
48	28	21	F	Filler	139	7	Laurie	1	364.0	NA
48	28	21	F	Filler	139	7	asked	2	183.0	NA
48	28	21	F	Filler	139	7	which	3	152.0	NA
48	28	21	F	Filler	139	7	truck	4	184.0	NA
48	28	21	F	Filler	139	7	the	5	283.0	NA
48	28	21	F	Filler	139	7	dealership	6	265.0	NA
48	28	21	F	Filler	139	7	sold	7	251.0	NA
48	28	21	F	Filler	139	7	but	8	233.0	NA
48	28	21	F	Filler	139	7	didn't	9	232.0	NA
48	28	21	F	Filler	139	7	paint	10	217.0	NA
48	28	21	F	Filler	139	7	completely.	11	201.0	NA
48	28	21	F	Question	139	7	NA	NA	2262.0	0
49	28	21	F	Filler	69	4	The	1	46.0	NA
49	28	21	F	Filler	69	4	tiny	2	66.0	NA
49	28	21	F	Filler	69	4	child	3	117.0	NA
49	28	21	F	Filler	69	4	rolled	4	98.0	NA
49	28	21	F	Filler	69	4	the	5	102.0	NA
49	28	21	F	Filler	69	4	piece	6	134.0	NA
49	28	21	F	Filler	69	4	of	7	117.0	NA
49	28	21	F	Filler	69	4	the	8	117.0	NA
49	28	21	F	Filler	69	4	toy	9	132.0	NA
49	28	21	F	Filler	69	4	into	10	116.0	NA
49	28	21	F	Filler	69	4	the	11	101.0	NA
49	28	21	F	Filler	69	4	next	12	99.0	NA
49	28	21	F	Filler	69	4	room	13	135.0	NA
49	28	21	F	Filler	69	4	after	14	67.0	NA
49	28	21	F	Filler	69	4	it	15	135.0	NA
49	28	21	F	Filler	69	4	broke	16	117.0	NA
49	28	21	F	Filler	69	4	off.	17	132.0	NA
49	28	21	F	Question	69	4	NA	NA	808.0	1
50	28	21	F	swets	15	3	The	1	177.0	NA
50	28	21	F	swets	15	3	husband	2	67.0	NA
50	28	21	F	swets	15	3	of	3	84.0	NA
50	28	21	F	swets	15	3	the	4	80.0	NA
50	28	21	F	swets	15	3	beautician	5	102.0	NA
50	28	21	F	swets	15	3	who	6	66.0	NA
50	28	21	F	swets	15	3	cut	7	84.0	NA
50	28	21	F	swets	15	3	himself	8	82.0	NA
50	28	21	F	swets	15	3	on	9	100.0	NA
50	28	21	F	swets	15	3	the	10	103.0	NA
50	28	21	F	swets	15	3	broken	11	134.0	NA
50	28	21	F	swets	15	3	glass	12	149.0	NA
50	28	21	F	swets	15	3	phoned	13	482.0	NA
50	28	21	F	swets	15	3	for	14	151.0	NA
50	28	21	F	swets	15	3	a	15	217.0	NA
50	28	21	F	swets	15	3	doctor.	16	199.0	NA
50	28	21	F	Question	15	3	NA	NA	825.0	1
51	28	21	F	Filler	102	5	The	1	196.0	NA
51	28	21	F	Filler	102	5	old	2	98.0	NA
51	28	21	F	Filler	102	5	man	3	54.0	NA
51	28	21	F	Filler	102	5	appeared	4	101.0	NA
51	28	21	F	Filler	102	5	to	5	115.0	NA
51	28	21	F	Filler	102	5	be	6	118.0	NA
51	28	21	F	Filler	102	5	upset	7	115.0	NA
51	28	21	F	Filler	102	5	by	8	285.0	NA
51	28	21	F	Filler	102	5	the	9	133.0	NA
51	28	21	F	Filler	102	5	teenager's	10	150.0	NA
51	28	21	F	Filler	102	5	ignorant	11	100.0	NA
51	28	21	F	Filler	102	5	remark.	12	132.0	NA
51	28	21	F	Question	102	5	NA	NA	1711.0	1
52	28	21	F	Filler	80	5	The	1	228.0	NA
52	28	21	F	Filler	80	5	stepfather	2	115.0	NA
52	28	21	F	Filler	80	5	of	3	85.0	NA
52	28	21	F	Filler	80	5	the	4	100.0	NA
52	28	21	F	Filler	80	5	nun	5	99.0	NA
52	28	21	F	Filler	80	5	with	6	100.0	NA
52	28	21	F	Filler	80	5	a	7	117.0	NA
52	28	21	F	Filler	80	5	long	8	117.0	NA
52	28	21	F	Filler	80	5	white	9	133.0	NA
52	28	21	F	Filler	80	5	beard	10	151.0	NA
52	28	21	F	Filler	80	5	became	11	133.0	NA
52	28	21	F	Filler	80	5	very	12	133.0	NA
52	28	21	F	Filler	80	5	ill.	13	116.0	NA
52	28	21	F	Question	80	5	NA	NA	1175.0	1
53	28	21	F	Filler	127	7	While	1	96.0	NA
53	28	21	F	Filler	127	7	Linda	2	132.0	NA
53	28	21	F	Filler	127	7	wrote	3	116.0	NA
53	28	21	F	Filler	127	7	the	4	100.0	NA
53	28	21	F	Filler	127	7	letter	5	133.0	NA
53	28	21	F	Filler	127	7	arrived	6	150.0	NA
53	28	21	F	Filler	127	7	from	7	84.0	NA
53	28	21	F	Filler	127	7	Chicago.	8	150.0	NA
53	28	21	F	Question	127	7	NA	NA	877.0	0
54	28	21	F	Filler	84	5	While	1	63.0	NA
54	28	21	F	Filler	84	5	talking	2	100.0	NA
54	28	21	F	Filler	84	5	to	3	100.0	NA
54	28	21	F	Filler	84	5	his	4	115.0	NA
54	28	21	F	Filler	84	5	sister	5	85.0	NA
54	28	21	F	Filler	84	5	the	6	481.0	NA
54	28	21	F	Filler	84	5	bishop	7	117.0	NA
54	28	21	F	Filler	84	5	with	8	101.0	NA
54	28	21	F	Filler	84	5	the	9	151.0	NA
54	28	21	F	Filler	84	5	funny	10	132.0	NA
54	28	21	F	Filler	84	5	eyebrows	11	135.0	NA
54	28	21	F	Filler	84	5	advocated	12	165.0	NA
54	28	21	F	Filler	84	5	strange	13	167.0	NA
54	28	21	F	Filler	84	5	beliefs.	14	199.0	NA
54	28	21	F	Question	84	5	NA	NA	1696.0	1
55	28	21	F	swets	36	3	The	1	146.0	NA
55	28	21	F	swets	36	3	son	2	115.0	NA
55	28	21	F	swets	36	3	of	3	100.0	NA
55	28	21	F	swets	36	3	the	4	116.0	NA
55	28	21	F	swets	36	3	saleswoman	5	102.0	NA
55	28	21	F	swets	36	3	who	6	116.0	NA
55	28	21	F	swets	36	3	talked	7	150.0	NA
55	28	21	F	swets	36	3	to	8	116.0	NA
55	28	21	F	swets	36	3	himself	9	116.0	NA
55	28	21	F	swets	36	3	all	10	115.0	NA
55	28	21	F	swets	36	3	the	11	186.0	NA
55	28	21	F	swets	36	3	time	12	183.0	NA
55	28	21	F	swets	36	3	walked	13	167.0	NA
55	28	21	F	swets	36	3	into	14	202.0	NA
55	28	21	F	swets	36	3	the	15	150.0	NA
55	28	21	F	swets	36	3	room.	16	167.0	NA
55	28	21	F	Question	36	3	NA	NA	2010.0	1
56	28	21	F	Filler	121	6	The	1	580.0	NA
56	28	21	F	Filler	121	6	ecologist	2	67.0	NA
56	28	21	F	Filler	121	6	wondered	3	100.0	NA
56	28	21	F	Filler	121	6	which	4	350.0	NA
56	28	21	F	Filler	121	6	plants	5	132.0	NA
56	28	21	F	Filler	121	6	the	6	118.0	NA
56	28	21	F	Filler	121	6	scientist	7	150.0	NA
56	28	21	F	Filler	121	6	grew	8	133.0	NA
56	28	21	F	Filler	121	6	but	9	150.0	NA
56	28	21	F	Filler	121	6	didn't	10	98.0	NA
56	28	21	F	Filler	121	6	modify	11	135.0	NA
56	28	21	F	Filler	121	6	the	12	117.0	NA
56	28	21	F	Filler	121	6	seeds	13	132.0	NA
56	28	21	F	Filler	121	6	of	14	134.0	NA
56	28	21	F	Filler	121	6	in	15	134.0	NA
56	28	21	F	Filler	121	6	the	16	349.0	NA
56	28	21	F	Filler	121	6	lab.	17	167.0	NA
56	28	21	F	Question	121	6	NA	NA	1292.0	1
57	28	21	F	Filler	52	4	The	1	380.0	NA
57	28	21	F	Filler	52	4	students	2	99.0	NA
57	28	21	F	Filler	52	4	were	3	99.0	NA
57	28	21	F	Filler	52	4	bored	4	68.0	NA
57	28	21	F	Filler	52	4	by	5	83.0	NA
57	28	21	F	Filler	52	4	the	6	116.0	NA
57	28	21	F	Filler	52	4	teacher.	7	99.0	NA
57	28	21	F	Question	52	4	NA	NA	1129.0	1
58	28	21	F	swets	18	3	The	1	347.0	NA
58	28	21	F	swets	18	3	niece	2	99.0	NA
58	28	21	F	swets	18	3	of	3	101.0	NA
58	28	21	F	swets	18	3	the	4	83.0	NA
58	28	21	F	swets	18	3	fisherman	5	100.0	NA
58	28	21	F	swets	18	3	who	6	115.0	NA
58	28	21	F	swets	18	3	drowned	7	133.0	NA
58	28	21	F	swets	18	3	herself	8	184.0	NA
58	28	21	F	swets	18	3	in	9	118.0	NA
58	28	21	F	swets	18	3	the	10	134.0	NA
58	28	21	F	swets	18	3	ocean	11	134.0	NA
58	28	21	F	swets	18	3	didn't	12	132.0	NA
58	28	21	F	swets	18	3	know	13	149.0	NA
58	28	21	F	swets	18	3	about	14	166.0	NA
58	28	21	F	swets	18	3	the	15	153.0	NA
58	28	21	F	swets	18	3	tricky	16	217.0	NA
58	28	21	F	swets	18	3	current.	17	234.0	NA
58	28	21	F	Question	18	3	NA	NA	2542.0	1
59	28	21	F	Filler	125	6	The	1	314.0	NA
59	28	21	F	Filler	125	6	bosses	2	116.0	NA
59	28	21	F	Filler	125	6	and	3	84.0	NA
59	28	21	F	Filler	125	6	secretaries	4	84.0	NA
59	28	21	F	Filler	125	6	took	5	165.0	NA
59	28	21	F	Filler	125	6	a	6	101.0	NA
59	28	21	F	Filler	125	6	long	7	167.0	NA
59	28	21	F	Filler	125	6	lunch	8	133.0	NA
59	28	21	F	Filler	125	6	together	9	132.0	NA
59	28	21	F	Filler	125	6	every	10	133.0	NA
59	28	21	F	Filler	125	6	Friday.	11	186.0	NA
59	28	21	F	Question	125	6	NA	NA	1693.0	1
60	28	21	F	Filler	71	4	The	1	380.0	NA
60	28	21	F	Filler	71	4	elderly	2	266.0	NA
60	28	21	F	Filler	71	4	woman	3	133.0	NA
60	28	21	F	Filler	71	4	locked	4	101.0	NA
60	28	21	F	Filler	71	4	and	5	132.0	NA
60	28	21	F	Filler	71	4	bolted	6	301.0	NA
60	28	21	F	Filler	71	4	her	7	267.0	NA
60	28	21	F	Filler	71	4	door	8	134.0	NA
60	28	21	F	Filler	71	4	every	9	115.0	NA
60	28	21	F	Filler	71	4	night	10	182.0	NA
60	28	21	F	Filler	71	4	after	11	151.0	NA
60	28	21	F	Filler	71	4	the	12	182.0	NA
60	28	21	F	Filler	71	4	robbers	13	150.0	NA
60	28	21	F	Filler	71	4	took	14	168.0	NA
60	28	21	F	Filler	71	4	her	15	470.0	NA
60	28	21	F	Filler	71	4	best	16	200.0	NA
60	28	21	F	Filler	71	4	pearls.	17	51.0	NA
60	28	21	F	Question	71	4	NA	NA	1212.0	1
61	28	21	F	Filler	54	4	The	1	312.0	NA
61	28	21	F	Filler	54	4	video	2	84.0	NA
61	28	21	F	Filler	54	4	screen	3	101.0	NA
61	28	21	F	Filler	54	4	of	4	50.0	NA
61	28	21	F	Filler	54	4	the	5	101.0	NA
61	28	21	F	Filler	54	4	monitor	6	133.0	NA
61	28	21	F	Filler	54	4	made	7	115.0	NA
61	28	21	F	Filler	54	4	strange	8	85.0	NA
61	28	21	F	Filler	54	4	noises	9	98.0	NA
61	28	21	F	Filler	54	4	and	10	85.0	NA
61	28	21	F	Filler	54	4	started	11	99.0	NA
61	28	21	F	Filler	54	4	emitting	12	118.0	NA
61	28	21	F	Filler	54	4	strange	13	99.0	NA
61	28	21	F	Filler	54	4	flashes.	14	117.0	NA
61	28	21	F	Question	54	4	NA	NA	1095.0	1
62	28	21	F	Filler	143	7	The	1	229.0	NA
62	28	21	F	Filler	143	7	lawyer	2	65.0	NA
62	28	21	F	Filler	143	7	and	3	51.0	NA
62	28	21	F	Filler	143	7	defendant	4	100.0	NA
62	28	21	F	Filler	143	7	whispered	5	85.0	NA
62	28	21	F	Filler	143	7	furiously	6	99.0	NA
62	28	21	F	Filler	143	7	during	7	84.0	NA
62	28	21	F	Filler	143	7	the	8	114.0	NA
62	28	21	F	Filler	143	7	recess.	9	133.0	NA
62	28	21	F	Question	143	7	NA	NA	1678.0	1
63	28	21	F	Filler	129	7	While	1	178.0	NA
63	28	21	F	Filler	129	7	Scott	2	83.0	NA
63	28	21	F	Filler	129	7	vacuumed	3	101.0	NA
63	28	21	F	Filler	129	7	the	4	402.0	NA
63	28	21	F	Filler	129	7	carpet	5	81.0	NA
63	28	21	F	Filler	129	7	the	6	119.0	NA
63	28	21	F	Filler	129	7	drapes	7	115.0	NA
63	28	21	F	Filler	129	7	flapped	8	116.0	NA
63	28	21	F	Filler	129	7	in	9	102.0	NA
63	28	21	F	Filler	129	7	the	10	115.0	NA
63	28	21	F	Filler	129	7	breeze.	11	134.0	NA
63	28	21	F	Question	129	7	NA	NA	1143.0	0
64	28	21	F	Filler	103	5	The	1	394.0	NA
64	28	21	F	Filler	103	5	desperate	2	82.0	NA
64	28	21	F	Filler	103	5	thief	3	66.0	NA
64	28	21	F	Filler	103	5	ran	4	103.0	NA
64	28	21	F	Filler	103	5	over	5	99.0	NA
64	28	21	F	Filler	103	5	a	6	82.0	NA
64	28	21	F	Filler	103	5	child	7	117.0	NA
64	28	21	F	Filler	103	5	in	8	100.0	NA
64	28	21	F	Filler	103	5	an	9	102.0	NA
64	28	21	F	Filler	103	5	attempt	10	99.0	NA
64	28	21	F	Filler	103	5	to	11	117.0	NA
64	28	21	F	Filler	103	5	dodge	12	151.0	NA
64	28	21	F	Filler	103	5	the	13	114.0	NA
64	28	21	F	Filler	103	5	cops.	14	152.0	NA
64	28	21	F	Question	103	5	NA	NA	1292.0	0
65	28	21	F	Filler	132	7	While	1	278.0	NA
65	28	21	F	Filler	132	7	John	2	68.0	NA
65	28	21	F	Filler	132	7	and	3	100.0	NA
65	28	21	F	Filler	132	7	Mary	4	82.0	NA
65	28	21	F	Filler	132	7	kissed	5	117.0	NA
65	28	21	F	Filler	132	7	their	6	102.0	NA
65	28	21	F	Filler	132	7	daughter	7	99.0	NA
65	28	21	F	Filler	132	7	fell	8	102.0	NA
65	28	21	F	Filler	132	7	asleep.	9	97.0	NA
65	28	21	F	Question	132	7	NA	NA	4131.0	1
66	28	21	F	swets	24	3	The	1	663.0	NA
66	28	21	F	swets	24	3	daughter	2	50.0	NA
66	28	21	F	swets	24	3	of	3	85.0	NA
66	28	21	F	swets	24	3	the	4	132.0	NA
66	28	21	F	swets	24	3	chaplain	5	99.0	NA
66	28	21	F	swets	24	3	who	6	86.0	NA
66	28	21	F	swets	24	3	drew	7	100.0	NA
66	28	21	F	swets	24	3	attention	8	166.0	NA
66	28	21	F	swets	24	3	to	9	1968.0	NA
66	28	21	F	swets	24	3	herself	10	113.0	NA
66	28	21	F	swets	24	3	all	11	200.0	NA
66	28	21	F	swets	24	3	the	12	285.0	NA
66	28	21	F	swets	24	3	time	13	332.0	NA
66	28	21	F	swets	24	3	hated	14	352.0	NA
66	28	21	F	swets	24	3	small	15	234.0	NA
66	28	21	F	swets	24	3	children.	16	317.0	NA
66	28	21	F	Question	24	3	NA	NA	2010.0	1
67	28	21	F	Filler	77	5	Outside	1	3065.0	NA
67	28	21	F	Filler	77	5	the	2	350.0	NA
67	28	21	F	Filler	77	5	courthouse	3	200.0	NA
67	28	21	F	Filler	77	5	the	4	250.0	NA
67	28	21	F	Filler	77	5	committee	5	284.0	NA
67	28	21	F	Filler	77	5	awarded	6	249.0	NA
67	28	21	F	Filler	77	5	a	7	298.0	NA
67	28	21	F	Filler	77	5	lifetime	8	202.0	NA
67	28	21	F	Filler	77	5	achievement	9	235.0	NA
67	28	21	F	Filler	77	5	prize	10	251.0	NA
67	28	21	F	Filler	77	5	to	11	266.0	NA
67	28	21	F	Filler	77	5	the	12	284.0	NA
67	28	21	F	Filler	77	5	creator	13	200.0	NA
67	28	21	F	Filler	77	5	of	14	248.0	NA
67	28	21	F	Filler	77	5	the	15	269.0	NA
67	28	21	F	Filler	77	5	sculpture.	16	299.0	NA
67	28	21	F	Question	77	5	NA	NA	3728.0	1
68	28	21	F	Filler	141	7	The	1	30.0	NA
68	28	21	F	Filler	141	7	nurse	2	216.0	NA
68	28	21	F	Filler	141	7	and	3	234.0	NA
68	28	21	F	Filler	141	7	custodian	4	248.0	NA
68	28	21	F	Filler	141	7	chatted	5	384.0	NA
68	28	21	F	Filler	141	7	during	6	320.0	NA
68	28	21	F	Filler	141	7	their	7	232.0	NA
68	28	21	F	Filler	141	7	break.	8	167.0	NA
68	28	21	F	Question	141	7	NA	NA	1245.0	1
69	28	21	F	Filler	100	5	There	1	179.0	NA
69	28	21	F	Filler	100	5	was	2	115.0	NA
69	28	21	F	Filler	100	5	a	3	134.0	NA
69	28	21	F	Filler	100	5	large	4	118.0	NA
69	28	21	F	Filler	100	5	sale	5	166.0	NA
69	28	21	F	Filler	100	5	on	6	134.0	NA
69	28	21	F	Filler	100	5	stationary	7	152.0	NA
69	28	21	F	Filler	100	5	and	8	149.0	NA
69	28	21	F	Filler	100	5	office	9	166.0	NA
69	28	21	F	Filler	100	5	supplies	10	183.0	NA
69	28	21	F	Filler	100	5	at	11	151.0	NA
69	28	21	F	Filler	100	5	the	12	150.0	NA
69	28	21	F	Filler	100	5	student	13	182.0	NA
69	28	21	F	Filler	100	5	bookstore.	14	185.0	NA
69	28	21	F	Question	100	5	NA	NA	2491.0	1
70	28	21	F	Filler	118	6	As	1	47.0	NA
70	28	21	F	Filler	118	6	the	2	149.0	NA
70	28	21	F	Filler	118	6	dog	3	133.0	NA
70	28	21	F	Filler	118	6	ran	4	99.0	NA
70	28	21	F	Filler	118	6	Wanda	5	100.0	NA
70	28	21	F	Filler	118	6	watched	6	84.0	NA
70	28	21	F	Filler	118	6	from	7	117.0	NA
70	28	21	F	Filler	118	6	the	8	100.0	NA
70	28	21	F	Filler	118	6	window.	9	133.0	NA
70	28	21	F	Question	118	6	NA	NA	810.0	1
71	28	21	F	Filler	135	7	While	1	278.0	NA
71	28	21	F	Filler	135	7	Donna	2	67.0	NA
71	28	21	F	Filler	135	7	and	3	98.0	NA
71	28	21	F	Filler	135	7	Scott	4	50.0	NA
71	28	21	F	Filler	135	7	met	5	118.0	NA
71	28	21	F	Filler	135	7	their	6	81.0	NA
71	28	21	F	Filler	135	7	agent	7	286.0	NA
71	28	21	F	Filler	135	7	some	8	149.0	NA
71	28	21	F	Filler	135	7	friends	9	99.0	NA
71	28	21	F	Filler	135	7	called	10	35.0	NA
71	28	21	F	Filler	135	7	and	11	99.0	NA
71	28	21	F	Filler	135	7	left	12	84.0	NA
71	28	21	F	Filler	135	7	a	13	83.0	NA
71	28	21	F	Filler	135	7	message.	14	135.0	NA
71	28	21	F	Question	135	7	NA	NA	1376.0	1
72	28	21	F	swets	9	3	The	1	29.0	NA
72	28	21	F	swets	9	3	father	2	101.0	NA
72	28	21	F	swets	9	3	of	3	99.0	NA
72	28	21	F	swets	9	3	the	4	115.0	NA
72	28	21	F	swets	9	3	schoolgirl	5	84.0	NA
72	28	21	F	swets	9	3	who	6	133.0	NA
72	28	21	F	swets	9	3	burned	7	600.0	NA
72	28	21	F	swets	9	3	himself	8	667.0	NA
72	28	21	F	swets	9	3	the	9	318.0	NA
72	28	21	F	swets	9	3	other	10	249.0	NA
72	28	21	F	swets	9	3	day	11	252.0	NA
72	28	21	F	swets	9	3	was	12	285.0	NA
72	28	21	F	swets	9	3	usually	13	250.0	NA
72	28	21	F	swets	9	3	very	14	248.0	NA
72	28	21	F	swets	9	3	careful.	15	234.0	NA
72	28	21	F	Question	9	3	NA	NA	893.0	1
73	28	21	F	Filler	73	5	My	1	279.0	NA
73	28	21	F	Filler	73	5	cousins	2	68.0	NA
73	28	21	F	Filler	73	5	admired	3	100.0	NA
73	28	21	F	Filler	73	5	the	4	65.0	NA
73	28	21	F	Filler	73	5	singer	5	101.0	NA
73	28	21	F	Filler	73	5	although	6	84.0	NA
73	28	21	F	Filler	73	5	she	7	99.0	NA
73	28	21	F	Filler	73	5	never	8	69.0	NA
73	28	21	F	Filler	73	5	became	9	98.0	NA
73	28	21	F	Filler	73	5	popular.	10	267.0	NA
73	28	21	F	Question	73	5	NA	NA	1593.0	1
74	28	21	F	swets	4	1	The	1	329.0	NA
74	28	21	F	swets	4	1	mother	2	117.0	NA
74	28	21	F	swets	4	1	of	3	70.0	NA
74	28	21	F	swets	4	1	the	4	65.0	NA
74	28	21	F	swets	4	1	bride	5	101.0	NA
74	28	21	F	swets	4	1	who	6	99.0	NA
74	28	21	F	swets	4	1	embarrassed	7	101.0	NA
74	28	21	F	swets	4	1	herself	8	116.0	NA
74	28	21	F	swets	4	1	at	9	133.0	NA
74	28	21	F	swets	4	1	the	10	116.0	NA
74	28	21	F	swets	4	1	reception	11	100.0	NA
74	28	21	F	swets	4	1	was	12	101.0	NA
74	28	21	F	swets	4	1	complaining	13	117.0	NA
74	28	21	F	swets	4	1	to	14	132.0	NA
74	28	21	F	swets	4	1	the	15	135.0	NA
74	28	21	F	swets	4	1	priest.	16	82.0	NA
74	28	21	F	Question	4	1	NA	NA	809.0	0
75	28	21	F	Filler	116	6	As	1	29.0	NA
75	28	21	F	Filler	116	6	the	2	49.0	NA
75	28	21	F	Filler	116	6	survivors	3	102.0	NA
75	28	21	F	Filler	116	6	were	4	98.0	NA
75	28	21	F	Filler	116	6	embracing	5	134.0	NA
75	28	21	F	Filler	116	6	the	6	50.0	NA
75	28	21	F	Filler	116	6	firefighter	7	101.0	NA
75	28	21	F	Filler	116	6	coughed	8	99.0	NA
75	28	21	F	Filler	116	6	violently.	9	150.0	NA
75	28	21	F	Question	116	6	NA	NA	1276.0	1
76	28	21	F	swets	30	3	The	1	128.0	NA
76	28	21	F	swets	30	3	bodyguard	2	186.0	NA
76	28	21	F	swets	30	3	of	3	350.0	NA
76	28	21	F	swets	30	3	the	4	166.0	NA
76	28	21	F	swets	30	3	baroness	5	101.0	NA
76	28	21	F	swets	30	3	who	6	182.0	NA
76	28	21	F	swets	30	3	prepared	7	183.0	NA
76	28	21	F	swets	30	3	himself	8	233.0	NA
76	28	21	F	swets	30	3	very	9	284.0	NA
76	28	21	F	swets	30	3	thoroughly	10	235.0	NA
76	28	21	F	swets	30	3	came	11	251.0	NA
76	28	21	F	swets	30	3	from	12	165.0	NA
76	28	21	F	swets	30	3	the	13	217.0	NA
76	28	21	F	swets	30	3	south.	14	283.0	NA
76	28	21	F	Question	30	3	NA	NA	1397.0	1
77	28	21	F	Filler	62	4	After	1	645.0	NA
77	28	21	F	Filler	62	4	much	2	501.0	NA
77	28	21	F	Filler	62	4	deliberation	3	249.0	NA
77	28	21	F	Filler	62	4	the	4	182.0	NA
77	28	21	F	Filler	62	4	jury	5	250.0	NA
77	28	21	F	Filler	62	4	found	6	235.0	NA
77	28	21	F	Filler	62	4	the	7	234.0	NA
77	28	21	F	Filler	62	4	defendant	8	234.0	NA
77	28	21	F	Filler	62	4	not	9	217.0	NA
77	28	21	F	Filler	62	4	guilty.	10	267.0	NA
77	28	21	F	Question	62	4	NA	NA	1144.0	1
78	28	21	F	swets	2	2	The	1	279.0	NA
78	28	21	F	swets	2	2	sister	2	549.0	NA
78	28	21	F	swets	2	2	of	3	353.0	NA
78	28	21	F	swets	2	2	the	4	801.0	NA
78	28	21	F	swets	2	2	fireman	5	1334.0	NA
78	28	21	F	swets	2	2	who	6	350.0	NA
78	28	21	F	swets	2	2	criticized	7	200.0	NA
78	28	21	F	swets	2	2	himself	8	215.0	NA
78	28	21	F	swets	2	2	far	9	218.0	NA
78	28	21	F	swets	2	2	too	10	499.0	NA
78	28	21	F	swets	2	2	often	11	250.0	NA
78	28	21	F	swets	2	2	was	12	303.0	NA
78	28	21	F	swets	2	2	painting	13	200.0	NA
78	28	21	F	swets	2	2	the	14	232.0	NA
78	28	21	F	swets	2	2	bedroom.	15	201.0	NA
78	28	21	F	Question	2	2	NA	NA	1042.0	0
79	28	21	F	Filler	48	4	The	1	146.0	NA
79	28	21	F	Filler	48	4	police	2	117.0	NA
79	28	21	F	Filler	48	4	arrested	3	116.0	NA
79	28	21	F	Filler	48	4	the	4	100.0	NA
79	28	21	F	Filler	48	4	sister	5	83.0	NA
79	28	21	F	Filler	48	4	of	6	301.0	NA
79	28	21	F	Filler	48	4	the	7	350.0	NA
79	28	21	F	Filler	48	4	handyman	8	200.0	NA
79	28	21	F	Filler	48	4	after	9	132.0	NA
79	28	21	F	Filler	48	4	she	10	151.0	NA
79	28	21	F	Filler	48	4	recently	11	116.0	NA
79	28	21	F	Filler	48	4	gave	12	135.0	NA
79	28	21	F	Filler	48	4	birth	13	116.0	NA
79	28	21	F	Filler	48	4	to	14	118.0	NA
79	28	21	F	Filler	48	4	twins.	15	148.0	NA
79	28	21	F	Question	48	4	NA	NA	977.0	1
80	28	21	F	Filler	56	4	The	1	79.0	NA
80	28	21	F	Filler	56	4	actor	2	149.0	NA
80	28	21	F	Filler	56	4	said	3	82.0	NA
80	28	21	F	Filler	56	4	the	4	118.0	NA
80	28	21	F	Filler	56	4	audiences	5	117.0	NA
80	28	21	F	Filler	56	4	believed	6	84.0	NA
80	28	21	F	Filler	56	4	the	7	116.0	NA
80	28	21	F	Filler	56	4	nasty	8	116.0	NA
80	28	21	F	Filler	56	4	remarks	9	117.0	NA
80	28	21	F	Filler	56	4	made	10	149.0	NA
80	28	21	F	Filler	56	4	by	11	117.0	NA
80	28	21	F	Filler	56	4	the	12	101.0	NA
80	28	21	F	Filler	56	4	film	13	147.0	NA
80	28	21	F	Filler	56	4	critic.	14	118.0	NA
80	28	21	F	Question	56	4	NA	NA	1676.0	1
81	28	21	F	Filler	109	6	While	1	245.0	NA
81	28	21	F	Filler	109	6	the	2	99.0	NA
81	28	21	F	Filler	109	6	farmer	3	84.0	NA
81	28	21	F	Filler	109	6	steered	4	132.0	NA
81	28	21	F	Filler	109	6	the	5	68.0	NA
81	28	21	F	Filler	109	6	truck	6	101.0	NA
81	28	21	F	Filler	109	6	the	7	83.0	NA
81	28	21	F	Filler	109	6	tractor	8	101.0	NA
81	28	21	F	Filler	109	6	pulled	9	97.0	NA
81	28	21	F	Filler	109	6	the	10	85.0	NA
81	28	21	F	Filler	109	6	plough.	11	134.0	NA
81	28	21	F	Question	109	6	NA	NA	777.0	1
82	28	21	F	Filler	95	5	The	1	245.0	NA
82	28	21	F	Filler	95	5	receptionist	2	69.0	NA
82	28	21	F	Filler	95	5	of	3	64.0	NA
82	28	21	F	Filler	95	5	the	4	85.0	NA
82	28	21	F	Filler	95	5	company	5	83.0	NA
82	28	21	F	Filler	95	5	went	6	166.0	NA
82	28	21	F	Filler	95	5	home	7	99.0	NA
82	28	21	F	Filler	95	5	sick	8	70.0	NA
82	28	21	F	Filler	95	5	before	9	282.0	NA
82	28	21	F	Filler	95	5	moving	10	82.0	NA
82	28	21	F	Filler	95	5	across	11	134.0	NA
82	28	21	F	Filler	95	5	town.	12	100.0	NA
82	28	21	F	Question	95	5	NA	NA	1979.0	0
83	28	21	F	swets	25	1	The	1	162.0	NA
83	28	21	F	swets	25	1	grandmother	2	99.0	NA
83	28	21	F	swets	25	1	of	3	84.0	NA
83	28	21	F	swets	25	1	the	4	101.0	NA
83	28	21	F	swets	25	1	stewardess	5	116.0	NA
83	28	21	F	swets	25	1	who	6	100.0	NA
83	28	21	F	swets	25	1	treated	7	116.0	NA
83	28	21	F	swets	25	1	herself	8	132.0	NA
83	28	21	F	swets	25	1	to	9	134.0	NA
83	28	21	F	swets	25	1	an	10	101.0	NA
83	28	21	F	swets	25	1	ice-cream	11	136.0	NA
83	28	21	F	swets	25	1	cone	12	114.0	NA
83	28	21	F	swets	25	1	was	13	153.0	NA
83	28	21	F	swets	25	1	waiting	14	148.0	NA
83	28	21	F	swets	25	1	at	15	117.0	NA
83	28	21	F	swets	25	1	home.	16	349.0	NA
83	28	21	F	Question	25	1	NA	NA	944.0	0
84	28	21	F	Filler	87	5	The	1	111.0	NA
84	28	21	F	Filler	87	5	car	2	101.0	NA
84	28	21	F	Filler	87	5	chased	3	114.0	NA
84	28	21	F	Filler	87	5	the	4	86.0	NA
84	28	21	F	Filler	87	5	robber	5	152.0	NA
84	28	21	F	Filler	87	5	of	6	165.0	NA
84	28	21	F	Filler	87	5	the	7	99.0	NA
84	28	21	F	Filler	87	5	bank	8	153.0	NA
84	28	21	F	Filler	87	5	into	9	216.0	NA
84	28	21	F	Filler	87	5	a	10	315.0	NA
84	28	21	F	Filler	87	5	narrow	11	285.0	NA
84	28	21	F	Filler	87	5	alley.	12	217.0	NA
84	28	21	F	Question	87	5	NA	NA	4344.0	0
85	28	21	F	swets	13	1	The	1	30.0	NA
85	28	21	F	swets	13	1	great-uncle	2	100.0	NA
85	28	21	F	swets	13	1	of	3	99.0	NA
85	28	21	F	swets	13	1	the	4	116.0	NA
85	28	21	F	swets	13	1	policeman	5	101.0	NA
85	28	21	F	swets	13	1	who	6	234.0	NA
85	28	21	F	swets	13	1	treated	7	217.0	NA
85	28	21	F	swets	13	1	himself	8	217.0	NA
85	28	21	F	swets	13	1	after	9	484.0	NA
85	28	21	F	swets	13	1	the	10	251.0	NA
85	28	21	F	swets	13	1	accident	11	249.0	NA
85	28	21	F	swets	13	1	was	12	251.0	NA
85	28	21	F	swets	13	1	watching	13	233.0	NA
85	28	21	F	swets	13	1	the	14	250.0	NA
85	28	21	F	swets	13	1	news.	15	266.0	NA
85	28	21	F	Question	13	1	NA	NA	2010.0	0
86	28	21	F	Filler	44	4	The	1	196.0	NA
86	28	21	F	Filler	44	4	solicitor	2	298.0	NA
86	28	21	F	Filler	44	4	wearing	3	103.0	NA
86	28	21	F	Filler	44	4	the	4	132.0	NA
86	28	21	F	Filler	44	4	new	5	151.0	NA
86	28	21	F	Filler	44	4	tuxedo	6	133.0	NA
86	28	21	F	Filler	44	4	bothered	7	83.0	NA
86	28	21	F	Filler	44	4	a	8	150.0	NA
86	28	21	F	Filler	44	4	man	9	166.0	NA
86	28	21	F	Filler	44	4	from	10	134.0	NA
86	28	21	F	Filler	44	4	New	11	117.0	NA
86	28	21	F	Filler	44	4	York.	12	166.0	NA
86	28	21	F	Question	44	4	NA	NA	3597.0	1
87	28	21	F	Filler	97	5	The	1	196.0	NA
87	28	21	F	Filler	97	5	tall	2	99.0	NA
87	28	21	F	Filler	97	5	man	3	119.0	NA
87	28	21	F	Filler	97	5	laughed	4	98.0	NA
87	28	21	F	Filler	97	5	at	5	119.0	NA
87	28	21	F	Filler	97	5	the	6	132.0	NA
87	28	21	F	Filler	97	5	clumsy	7	183.0	NA
87	28	21	F	Filler	97	5	child	8	182.0	NA
87	28	21	F	Filler	97	5	who	9	118.0	NA
87	28	21	F	Filler	97	5	spilled	10	133.0	NA
87	28	21	F	Filler	97	5	the	11	118.0	NA
87	28	21	F	Filler	97	5	milk	12	116.0	NA
87	28	21	F	Filler	97	5	on	13	132.0	NA
87	28	21	F	Filler	97	5	himself.	14	169.0	NA
87	28	21	F	Question	97	5	NA	NA	942.0	1
88	28	21	F	swets	22	1	The	1	329.0	NA
88	28	21	F	swets	22	1	nephew	2	200.0	NA
88	28	21	F	swets	22	1	of	3	101.0	NA
88	28	21	F	swets	22	1	the	4	214.0	NA
88	28	21	F	swets	22	1	commander	5	199.0	NA
88	28	21	F	swets	22	1	who	6	486.0	NA
88	28	21	F	swets	22	1	calmed	7	215.0	NA
88	28	21	F	swets	22	1	himself	8	216.0	NA
88	28	21	F	swets	22	1	after	9	284.0	NA
88	28	21	F	swets	22	1	the	10	269.0	NA
88	28	21	F	swets	22	1	tragedy	11	233.0	NA
88	28	21	F	swets	22	1	was	12	350.0	NA
88	28	21	F	swets	22	1	waiting	13	385.0	NA
88	28	21	F	swets	22	1	for	14	299.0	NA
88	28	21	F	swets	22	1	the	15	282.0	NA
88	28	21	F	swets	22	1	doctor.	16	350.0	NA
88	28	21	F	Question	22	1	NA	NA	3862.0	0
89	28	21	F	Filler	99	5	The	1	110.0	NA
89	28	21	F	Filler	99	5	daring	2	134.0	NA
89	28	21	F	Filler	99	5	photographer	3	134.0	NA
89	28	21	F	Filler	99	5	captured	4	134.0	NA
89	28	21	F	Filler	99	5	the	5	115.0	NA
89	28	21	F	Filler	99	5	image	6	168.0	NA
89	28	21	F	Filler	99	5	of	7	182.0	NA
89	28	21	F	Filler	99	5	the	8	184.0	NA
89	28	21	F	Filler	99	5	destruction	9	203.0	NA
89	28	21	F	Filler	99	5	as	10	316.0	NA
89	28	21	F	Filler	99	5	it	11	150.0	NA
89	28	21	F	Filler	99	5	devastated	12	150.0	NA
89	28	21	F	Filler	99	5	the	13	253.0	NA
89	28	21	F	Filler	99	5	village.	14	200.0	NA
89	28	21	F	Question	99	5	NA	NA	994.0	1
90	28	21	F	swets	6	3	The	1	194.0	NA
90	28	21	F	swets	6	3	hostess	2	217.0	NA
90	28	21	F	swets	6	3	of	3	169.0	NA
90	28	21	F	swets	6	3	the	4	132.0	NA
90	28	21	F	swets	6	3	mayor	5	135.0	NA
90	28	21	F	swets	6	3	who	6	165.0	NA
90	28	21	F	swets	6	3	complimented	7	167.0	NA
90	28	21	F	swets	6	3	herself	8	120.0	NA
90	28	21	F	swets	6	3	constantly	9	181.0	NA
90	28	21	F	swets	6	3	was	10	134.0	NA
90	28	21	F	swets	6	3	bothered	11	149.0	NA
90	28	21	F	swets	6	3	by	12	149.0	NA
90	28	21	F	swets	6	3	the	13	136.0	NA
90	28	21	F	swets	6	3	reporter.	14	199.0	NA
90	28	21	F	Question	6	3	NA	NA	3143.0	1
91	28	21	F	Filler	114	6	While	1	1864.0	NA
91	28	21	F	Filler	114	6	the	2	216.0	NA
91	28	21	F	Filler	114	6	winners	3	116.0	NA
91	28	21	F	Filler	114	6	were	4	168.0	NA
91	28	21	F	Filler	114	6	kissing	5	200.0	NA
91	28	21	F	Filler	114	6	the	6	215.0	NA
91	28	21	F	Filler	114	6	crowd	7	284.0	NA
91	28	21	F	Filler	114	6	cheered	8	302.0	NA
91	28	21	F	Filler	114	6	wildly.	9	183.0	NA
91	28	21	F	Question	114	6	NA	NA	1610.0	1
92	28	21	F	Filler	40	4	The	1	379.0	NA
92	28	21	F	Filler	40	4	boy's	2	167.0	NA
92	28	21	F	Filler	40	4	mother	3	99.0	NA
92	28	21	F	Filler	40	4	was	4	155.0	NA
92	28	21	F	Filler	40	4	very	5	165.0	NA
92	28	21	F	Filler	40	4	happy	6	168.0	NA
92	28	21	F	Filler	40	4	to	7	166.0	NA
92	28	21	F	Filler	40	4	see	8	199.0	NA
92	28	21	F	Filler	40	4	good	9	199.0	NA
92	28	21	F	Filler	40	4	grades	10	202.0	NA
92	28	21	F	Filler	40	4	on	11	334.0	NA
92	28	21	F	Filler	40	4	his	12	233.0	NA
92	28	21	F	Filler	40	4	report	13	215.0	NA
92	28	21	F	Filler	40	4	card.	14	302.0	NA
92	28	21	F	Question	40	4	NA	NA	1778.0	1
93	28	21	F	Filler	91	5	The	1	211.0	NA
93	28	21	F	Filler	91	5	workman	2	68.0	NA
93	28	21	F	Filler	91	5	dropped	3	66.0	NA
93	28	21	F	Filler	91	5	the	4	51.0	NA
93	28	21	F	Filler	91	5	assistant	5	81.0	NA
93	28	21	F	Filler	91	5	who	6	52.0	NA
93	28	21	F	Filler	91	5	complained	7	99.0	NA
93	28	21	F	Filler	91	5	bitterly	8	50.0	NA
93	28	21	F	Filler	91	5	onto	9	66.0	NA
93	28	21	F	Filler	91	5	a	10	52.0	NA
93	28	21	F	Filler	91	5	lower	11	65.0	NA
93	28	21	F	Filler	91	5	floor.	12	117.0	NA
93	28	21	F	Question	91	5	NA	NA	961.0	1
94	28	21	F	Filler	112	6	As	1	312.0	NA
94	28	21	F	Filler	112	6	the	2	84.0	NA
94	28	21	F	Filler	112	6	dog	3	115.0	NA
94	28	21	F	Filler	112	6	was	4	133.0	NA
94	28	21	F	Filler	112	6	calming	5	36.0	NA
94	28	21	F	Filler	112	6	down	6	116.0	NA
94	28	21	F	Filler	112	6	the	7	101.0	NA
94	28	21	F	Filler	112	6	puppy	8	133.0	NA
94	28	21	F	Filler	112	6	slept	9	99.0	NA
94	28	21	F	Filler	112	6	in	10	131.0	NA
94	28	21	F	Filler	112	6	the	11	133.0	NA
94	28	21	F	Filler	112	6	cage.	12	120.0	NA
94	28	21	F	Question	112	6	NA	NA	1043.0	1
95	28	21	F	swets	32	2	The	1	228.0	NA
95	28	21	F	swets	32	2	nephew	2	83.0	NA
95	28	21	F	swets	32	2	of	3	86.0	NA
95	28	21	F	swets	32	2	the	4	33.0	NA
95	28	21	F	swets	32	2	duchess	5	116.0	NA
95	28	21	F	swets	32	2	who	6	83.0	NA
95	28	21	F	swets	32	2	looked	7	133.0	NA
95	28	21	F	swets	32	2	at	8	67.0	NA
95	28	21	F	swets	32	2	herself	9	117.0	NA
95	28	21	F	swets	32	2	in	10	132.0	NA
95	28	21	F	swets	32	2	the	11	102.0	NA
95	28	21	F	swets	32	2	mirror	12	116.0	NA
95	28	21	F	swets	32	2	wore	13	83.0	NA
95	28	21	F	swets	32	2	a	14	99.0	NA
95	28	21	F	swets	32	2	blue	15	116.0	NA
95	28	21	F	swets	32	2	shirt.	16	86.0	NA
95	28	21	F	Question	32	2	NA	NA	2056.0	1
96	28	21	F	Filler	113	6	While	1	77.0	NA
96	28	21	F	Filler	113	6	Noah	2	84.0	NA
96	28	21	F	Filler	113	6	was	3	67.0	NA
96	28	21	F	Filler	113	6	waking	4	100.0	NA
96	28	21	F	Filler	113	6	up	5	66.0	NA
96	28	21	F	Filler	113	6	the	6	84.0	NA
96	28	21	F	Filler	113	6	man	7	50.0	NA
96	28	21	F	Filler	113	6	the	8	318.0	NA
96	28	21	F	Filler	113	6	neighbor	9	133.0	NA
96	28	21	F	Filler	113	6	coughed	10	117.0	NA
96	28	21	F	Filler	113	6	loudly.	11	167.0	NA
96	28	21	F	Question	113	6	NA	NA	1226.0	1
97	28	21	F	Filler	74	5	My	1	63.0	NA
97	28	21	F	Filler	74	5	former	2	99.0	NA
97	28	21	F	Filler	74	5	girlfriend	3	67.0	NA
97	28	21	F	Filler	74	5	criticized	4	67.0	NA
97	28	21	F	Filler	74	5	the	5	100.0	NA
97	28	21	F	Filler	74	5	author's	6	66.0	NA
97	28	21	F	Filler	74	5	agent	7	118.0	NA
97	28	21	F	Filler	74	5	because	8	235.0	NA
97	28	21	F	Filler	74	5	he	9	1898.0	NA
97	28	21	F	Filler	74	5	had	10	151.0	NA
97	28	21	F	Filler	74	5	failed	11	466.0	NA
97	28	21	F	Filler	74	5	to	12	368.0	NA
97	28	21	F	Filler	74	5	meet	13	332.0	NA
97	28	21	F	Filler	74	5	a	14	251.0	NA
97	28	21	F	Filler	74	5	deadline.	15	268.0	NA
97	28	21	F	Question	74	5	NA	NA	1276.0	1
98	28	21	F	swets	11	2	The	1	497.0	NA
98	28	21	F	swets	11	2	mother	2	99.0	NA
98	28	21	F	swets	11	2	of	3	100.0	NA
98	28	21	F	swets	11	2	the	4	117.0	NA
98	28	21	F	swets	11	2	surgeon	5	150.0	NA
98	28	21	F	swets	11	2	who	6	417.0	NA
98	28	21	F	swets	11	2	made	7	299.0	NA
98	28	21	F	swets	11	2	a	8	202.0	NA
98	28	21	F	swets	11	2	fool	9	200.0	NA
98	28	21	F	swets	11	2	of	10	233.0	NA
98	28	21	F	swets	11	2	himself	11	168.0	NA
98	28	21	F	swets	11	2	at	12	399.0	NA
98	28	21	F	swets	11	2	the	13	301.0	NA
98	28	21	F	swets	11	2	party	14	233.0	NA
98	28	21	F	swets	11	2	was	15	284.0	NA
98	28	21	F	swets	11	2	greatly	16	216.0	NA
98	28	21	F	swets	11	2	embarrassed.	17	202.0	NA
98	28	21	F	Question	11	2	NA	NA	2444.0	1
99	28	21	F	Filler	94	5	After	1	278.0	NA
99	28	21	F	Filler	94	5	months	2	117.0	NA
99	28	21	F	Filler	94	5	of	3	134.0	NA
99	28	21	F	Filler	94	5	preparation	4	135.0	NA
99	28	21	F	Filler	94	5	the	5	146.0	NA
99	28	21	F	Filler	94	5	ballerina	6	119.0	NA
99	28	21	F	Filler	94	5	was	7	164.0	NA
99	28	21	F	Filler	94	5	getting	8	118.0	NA
99	28	21	F	Filler	94	5	ready	9	135.0	NA
99	28	21	F	Filler	94	5	for	10	149.0	NA
99	28	21	F	Filler	94	5	opening	11	151.0	NA
99	28	21	F	Filler	94	5	night.	12	183.0	NA
99	28	21	F	Question	94	5	NA	NA	2057.0	1
100	28	21	F	Filler	75	5	The	1	212.0	NA
100	28	21	F	Filler	75	5	musician	2	134.0	NA
100	28	21	F	Filler	75	5	shocked	3	134.0	NA
100	28	21	F	Filler	75	5	the	4	118.0	NA
100	28	21	F	Filler	75	5	audience	5	133.0	NA
100	28	21	F	Filler	75	5	because	6	150.0	NA
100	28	21	F	Filler	75	5	they	7	150.0	NA
100	28	21	F	Filler	75	5	did	8	182.0	NA
100	28	21	F	Filler	75	5	not	9	135.0	NA
100	28	21	F	Filler	75	5	realize	10	149.0	NA
100	28	21	F	Filler	75	5	what	11	118.0	NA
100	28	21	F	Filler	75	5	these	12	132.0	NA
100	28	21	F	Filler	75	5	shows	13	134.0	NA
100	28	21	F	Filler	75	5	were	14	166.0	NA
100	28	21	F	Filler	75	5	like.	15	201.0	NA
100	28	21	F	Question	75	5	NA	NA	2679.0	0
101	28	21	F	Filler	110	6	While	1	229.0	NA
101	28	21	F	Filler	110	6	the	2	84.0	NA
101	28	21	F	Filler	110	6	lawyer	3	99.0	NA
101	28	21	F	Filler	110	6	was	4	83.0	NA
101	28	21	F	Filler	110	6	reading	5	68.0	NA
101	28	21	F	Filler	110	6	the	6	84.0	NA
101	28	21	F	Filler	110	6	will	7	150.0	NA
101	28	21	F	Filler	110	6	the	8	116.0	NA
101	28	21	F	Filler	110	6	contract	9	134.0	NA
101	28	21	F	Filler	110	6	remained	10	116.0	NA
101	28	21	F	Filler	110	6	on	11	135.0	NA
101	28	21	F	Filler	110	6	the	12	135.0	NA
101	28	21	F	Filler	110	6	desk.	13	133.0	NA
101	28	21	F	Question	110	6	NA	NA	2391.0	1
102	28	21	F	swets	7	1	The	1	295.0	NA
102	28	21	F	swets	7	1	niece	2	84.0	NA
102	28	21	F	swets	7	1	of	3	119.0	NA
102	28	21	F	swets	7	1	the	4	97.0	NA
102	28	21	F	swets	7	1	waitress	5	118.0	NA
102	28	21	F	swets	7	1	who	6	134.0	NA
102	28	21	F	swets	7	1	hurt	7	134.0	NA
102	28	21	F	swets	7	1	herself	8	133.0	NA
102	28	21	F	swets	7	1	on	9	116.0	NA
102	28	21	F	swets	7	1	the	10	148.0	NA
102	28	21	F	swets	7	1	bicycle	11	168.0	NA
102	28	21	F	swets	7	1	was	12	116.0	NA
102	28	21	F	swets	7	1	angry	13	149.0	NA
102	28	21	F	swets	7	1	about	14	150.0	NA
102	28	21	F	swets	7	1	the	15	149.0	NA
102	28	21	F	swets	7	1	incident.	16	168.0	NA
102	28	21	F	Question	7	1	NA	NA	2295.0	0
103	28	21	F	Filler	134	7	As	1	262.0	NA
103	28	21	F	Filler	134	7	Shawnie	2	117.0	NA
103	28	21	F	Filler	134	7	and	3	284.0	NA
103	28	21	F	Filler	134	7	Nick	4	166.0	NA
103	28	21	F	Filler	134	7	were	5	99.0	NA
103	28	21	F	Filler	134	7	embracing	6	168.0	NA
103	28	21	F	Filler	134	7	the	7	116.0	NA
103	28	21	F	Filler	134	7	doctor	8	133.0	NA
103	28	21	F	Filler	134	7	the	9	150.0	NA
103	28	21	F	Filler	134	7	visitor	10	133.0	NA
103	28	21	F	Filler	134	7	entered	11	137.0	NA
103	28	21	F	Filler	134	7	the	12	167.0	NA
103	28	21	F	Filler	134	7	room.	13	233.0	NA
103	28	21	F	Question	134	7	NA	NA	2240.0	1
104	28	21	F	Filler	128	7	While	1	466.0	NA
104	28	21	F	Filler	128	7	the	2	116.0	NA
104	28	21	F	Filler	128	7	man	3	117.0	NA
104	28	21	F	Filler	128	7	was	4	115.0	NA
104	28	21	F	Filler	128	7	walking	5	134.0	NA
104	28	21	F	Filler	128	7	the	6	234.0	NA
104	28	21	F	Filler	128	7	poodle	7	182.0	NA
104	28	21	F	Filler	128	7	barked	8	168.0	NA
104	28	21	F	Filler	128	7	loudly.	9	167.0	NA
104	28	21	F	Question	128	7	NA	NA	1059.0	1
105	28	21	F	Filler	61	4	The	1	514.0	NA
105	28	21	F	Filler	61	4	lemon	2	185.0	NA
105	28	21	F	Filler	61	4	squirted	3	182.0	NA
105	28	21	F	Filler	61	4	into	4	117.0	NA
105	28	21	F	Filler	61	4	the	5	148.0	NA
105	28	21	F	Filler	61	4	debutante's	6	170.0	NA
105	28	21	F	Filler	61	4	eye	7	233.0	NA
105	28	21	F	Filler	61	4	as	8	283.0	NA
105	28	21	F	Filler	61	4	she	9	150.0	NA
105	28	21	F	Filler	61	4	tried	10	183.0	NA
105	28	21	F	Filler	61	4	to	11	199.0	NA
105	28	21	F	Filler	61	4	impress	12	234.0	NA
105	28	21	F	Filler	61	4	her	13	183.0	NA
105	28	21	F	Filler	61	4	mother's	14	317.0	NA
105	28	21	F	Filler	61	4	society	15	250.0	NA
105	28	21	F	Filler	61	4	friends.	16	318.0	NA
105	28	21	F	Question	61	4	NA	NA	1860.0	1
106	28	21	F	Filler	108	5	The	1	180.0	NA
106	28	21	F	Filler	108	5	museum	2	100.0	NA
106	28	21	F	Filler	108	5	wing	3	115.0	NA
106	28	21	F	Filler	108	5	which	4	135.0	NA
106	28	21	F	Filler	108	5	housed	5	149.0	NA
106	28	21	F	Filler	108	5	all	6	567.0	NA
106	28	21	F	Filler	108	5	the	7	268.0	NA
106	28	21	F	Filler	108	5	Picasso	8	250.0	NA
106	28	21	F	Filler	108	5	paintings	9	233.0	NA
106	28	21	F	Filler	108	5	was	10	166.0	NA
106	28	21	F	Filler	108	5	very	11	167.0	NA
106	28	21	F	Filler	108	5	crowded.	12	184.0	NA
106	28	21	F	Question	108	5	NA	NA	1393.0	1
107	28	21	F	swets	12	3	The	1	228.0	NA
107	28	21	F	swets	12	3	son	2	182.0	NA
107	28	21	F	swets	12	3	of	3	134.0	NA
107	28	21	F	swets	12	3	the	4	118.0	NA
107	28	21	F	swets	12	3	princess	5	133.0	NA
107	28	21	F	swets	12	3	who	6	133.0	NA
107	28	21	F	swets	12	3	scratched	7	249.0	NA
107	28	21	F	swets	12	3	herself	8	167.0	NA
107	28	21	F	swets	12	3	in	9	150.0	NA
107	28	21	F	swets	12	3	public	10	165.0	NA
107	28	21	F	swets	12	3	was	11	167.0	NA
107	28	21	F	swets	12	3	terribly	12	169.0	NA
107	28	21	F	swets	12	3	humiliated.	13	233.0	NA
107	28	21	F	Question	12	3	NA	NA	1706.0	1
108	28	21	F	Filler	59	4	The	1	212.0	NA
108	28	21	F	Filler	59	4	conductor	2	149.0	NA
108	28	21	F	Filler	59	4	of	3	135.0	NA
108	28	21	F	Filler	59	4	the	4	614.0	NA
108	28	21	F	Filler	59	4	orchestra	5	136.0	NA
108	28	21	F	Filler	59	4	with	6	134.0	NA
108	28	21	F	Filler	59	4	the	7	150.0	NA
108	28	21	F	Filler	59	4	bald	8	164.0	NA
108	28	21	F	Filler	59	4	head	9	152.0	NA
108	28	21	F	Filler	59	4	plays	10	134.0	NA
108	28	21	F	Filler	59	4	excellently.	11	201.0	NA
108	28	21	F	Question	59	4	NA	NA	1944.0	1
109	28	21	F	swets	14	2	The	1	1816.0	NA
109	28	21	F	swets	14	2	father	2	98.0	NA
109	28	21	F	swets	14	2	of	3	151.0	NA
109	28	21	F	swets	14	2	the	4	184.0	NA
109	28	21	F	swets	14	2	nurse	5	183.0	NA
109	28	21	F	swets	14	2	who	6	317.0	NA
109	28	21	F	swets	14	2	injured	7	284.0	NA
109	28	21	F	swets	14	2	herself	8	282.0	NA
109	28	21	F	swets	14	2	last	9	518.0	NA
109	28	21	F	swets	14	2	summer	10	250.0	NA
109	28	21	F	swets	14	2	had	11	348.0	NA
109	28	21	F	swets	14	2	lived	12	350.0	NA
109	28	21	F	swets	14	2	in	13	287.0	NA
109	28	21	F	swets	14	2	Wales.	14	283.0	NA
109	28	21	F	Question	14	2	NA	NA	1561.0	0
110	28	21	F	Filler	37	4	The	1	3697.0	NA
110	28	21	F	Filler	37	4	party	2	368.0	NA
110	28	21	F	Filler	37	4	attracted	3	666.0	NA
110	28	21	F	Filler	37	4	the	4	452.0	NA
110	28	21	F	Filler	37	4	fraternity	5	550.0	NA
110	28	21	F	Filler	37	4	members	6	552.0	NA
110	28	21	F	Filler	37	4	whose	7	432.0	NA
110	28	21	F	Filler	37	4	house	8	1153.0	NA
110	28	21	F	Filler	37	4	had	9	265.0	NA
110	28	21	F	Filler	37	4	been	10	169.0	NA
110	28	21	F	Filler	37	4	seized	11	265.0	NA
110	28	21	F	Filler	37	4	by	12	300.0	NA
110	28	21	F	Filler	37	4	drug	13	249.0	NA
110	28	21	F	Filler	37	4	agents.	14	219.0	NA
110	28	21	F	Question	37	4	NA	NA	1658.0	1
111	28	21	F	swets	26	2	The	1	229.0	NA
111	28	21	F	swets	26	2	grand-niece	2	199.0	NA
111	28	21	F	swets	26	2	of	3	66.0	NA
111	28	21	F	swets	26	2	the	4	85.0	NA
111	28	21	F	swets	26	2	admiral	5	99.0	NA
111	28	21	F	swets	26	2	who	6	33.0	NA
111	28	21	F	swets	26	2	wrote	7	83.0	NA
111	28	21	F	swets	26	2	himself	8	84.0	NA
111	28	21	F	swets	26	2	a	9	118.0	NA
111	28	21	F	swets	26	2	note	10	82.0	NA
111	28	21	F	swets	26	2	admired	11	282.0	NA
111	28	21	F	swets	26	2	sailors	12	253.0	NA
111	28	21	F	swets	26	2	very	13	266.0	NA
111	28	21	F	swets	26	2	much.	14	134.0	NA
111	28	21	F	Question	26	2	NA	NA	1593.0	0
112	28	21	F	Filler	104	5	Despite	1	62.0	NA
112	28	21	F	Filler	104	5	the	2	81.0	NA
112	28	21	F	Filler	104	5	relative	3	53.0	NA
112	28	21	F	Filler	104	5	lack	4	65.0	NA
112	28	21	F	Filler	104	5	of	5	236.0	NA
112	28	21	F	Filler	104	5	rain	6	101.0	NA
112	28	21	F	Filler	104	5	the	7	150.0	NA
112	28	21	F	Filler	104	5	farmer	8	131.0	NA
112	28	21	F	Filler	104	5	harvested	9	136.0	NA
112	28	21	F	Filler	104	5	much	10	117.0	NA
112	28	21	F	Filler	104	5	wheat.	11	132.0	NA
112	28	21	F	Question	104	5	NA	NA	1810.0	1
113	28	21	F	Filler	133	7	While	1	31.0	NA
113	28	21	F	Filler	133	7	the	2	66.0	NA
113	28	21	F	Filler	133	7	lawyers	3	352.0	NA
113	28	21	F	Filler	133	7	fought	4	98.0	NA
113	28	21	F	Filler	133	7	the	5	102.0	NA
113	28	21	F	Filler	133	7	ruling	6	99.0	NA
113	28	21	F	Filler	133	7	the	7	98.0	NA
113	28	21	F	Filler	133	7	judge	8	118.0	NA
113	28	21	F	Filler	133	7	announced	9	100.0	NA
113	28	21	F	Filler	133	7	the	10	117.0	NA
113	28	21	F	Filler	133	7	decision.	11	117.0	NA
113	28	21	F	Question	133	7	NA	NA	1644.0	0
114	28	21	F	Filler	46	4	The	1	111.0	NA
114	28	21	F	Filler	46	4	preacher	2	168.0	NA
114	28	21	F	Filler	46	4	of	3	100.0	NA
114	28	21	F	Filler	46	4	the	4	365.0	NA
114	28	21	F	Filler	46	4	congregation	5	135.0	NA
114	28	21	F	Filler	46	4	had	6	200.0	NA
114	28	21	F	Filler	46	4	given	7	150.0	NA
114	28	21	F	Filler	46	4	a	8	232.0	NA
114	28	21	F	Filler	46	4	sermon	9	201.0	NA
114	28	21	F	Filler	46	4	at	10	202.0	NA
114	28	21	F	Filler	46	4	a	11	182.0	NA
114	28	21	F	Filler	46	4	local	12	217.0	NA
114	28	21	F	Filler	46	4	school.	13	183.0	NA
114	28	21	F	Question	46	4	NA	NA	1394.0	1
115	28	21	F	Filler	81	5	The	1	127.0	NA
115	28	21	F	Filler	81	5	stubborn	2	101.0	NA
115	28	21	F	Filler	81	5	old	3	84.0	NA
115	28	21	F	Filler	81	5	man	4	115.0	NA
115	28	21	F	Filler	81	5	criticized	5	102.0	NA
115	28	21	F	Filler	81	5	everything	6	132.0	NA
115	28	21	F	Filler	81	5	that	7	99.0	NA
115	28	21	F	Filler	81	5	the	8	101.0	NA
115	28	21	F	Filler	81	5	young	9	150.0	NA
115	28	21	F	Filler	81	5	student	10	100.0	NA
115	28	21	F	Filler	81	5	did.	11	85.0	NA
115	28	21	F	Question	81	5	NA	NA	1494.0	1
116	28	21	F	swets	19	1	The	1	262.0	NA
116	28	21	F	swets	19	1	neighbor	2	101.0	NA
116	28	21	F	swets	19	1	of	3	64.0	NA
116	28	21	F	swets	19	1	the	4	184.0	NA
116	28	21	F	swets	19	1	actor	5	118.0	NA
116	28	21	F	swets	19	1	who	6	134.0	NA
116	28	21	F	swets	19	1	hated	7	98.0	NA
116	28	21	F	swets	19	1	himself	8	168.0	NA
116	28	21	F	swets	19	1	for	9	367.0	NA
116	28	21	F	swets	19	1	lying	10	166.0	NA
116	28	21	F	swets	19	1	left	11	335.0	NA
116	28	21	F	swets	19	1	town	12	251.0	NA
116	28	21	F	swets	19	1	in	13	215.0	NA
116	28	21	F	swets	19	1	a	14	184.0	NA
116	28	21	F	swets	19	1	hurry.	15	218.0	NA
116	28	21	F	Question	19	1	NA	NA	3744.0	1
117	28	21	F	Filler	93	5	The	1	764.0	NA
117	28	21	F	Filler	93	5	new	2	65.0	NA
117	28	21	F	Filler	93	5	book	3	84.0	NA
117	28	21	F	Filler	93	5	replaced	4	117.0	NA
117	28	21	F	Filler	93	5	the	5	50.0	NA
117	28	21	F	Filler	93	5	work	6	67.0	NA
117	28	21	F	Filler	93	5	of	7	67.0	NA
117	28	21	F	Filler	93	5	the	8	249.0	NA
117	28	21	F	Filler	93	5	leaders	9	101.0	NA
117	28	21	F	Filler	93	5	in	10	117.0	NA
117	28	21	F	Filler	93	5	the	11	1801.0	NA
117	28	21	F	Filler	93	5	field	12	201.0	NA
117	28	21	F	Filler	93	5	of	13	217.0	NA
117	28	21	F	Filler	93	5	physical	14	250.0	NA
117	28	21	F	Filler	93	5	chemistry.	15	217.0	NA
117	28	21	F	Question	93	5	NA	NA	1509.0	1
118	28	21	F	Filler	111	6	While	1	28.0	NA
118	28	21	F	Filler	111	6	the	2	84.0	NA
118	28	21	F	Filler	111	6	clown	3	84.0	NA
118	28	21	F	Filler	111	6	juggled	4	98.0	NA
118	28	21	F	Filler	111	6	the	5	118.0	NA
118	28	21	F	Filler	111	6	balls	6	100.0	NA
118	28	21	F	Filler	111	6	fell	7	133.0	NA
118	28	21	F	Filler	111	6	to	8	101.0	NA
118	28	21	F	Filler	111	6	the	9	133.0	NA
118	28	21	F	Filler	111	6	ground.	10	134.0	NA
118	28	21	F	Question	111	6	NA	NA	992.0	1
119	28	21	F	swets	35	2	The	1	228.0	NA
119	28	21	F	swets	35	2	landlady	2	84.0	NA
119	28	21	F	swets	35	2	of	3	50.0	NA
119	28	21	F	swets	35	2	the	4	68.0	NA
119	28	21	F	swets	35	2	businessman	5	99.0	NA
119	28	21	F	swets	35	2	who	6	83.0	NA
119	28	21	F	swets	35	2	had	7	98.0	NA
119	28	21	F	swets	35	2	locked	8	101.0	NA
119	28	21	F	swets	35	2	himself	9	132.0	NA
119	28	21	F	swets	35	2	in	10	118.0	NA
119	28	21	F	swets	35	2	the	11	101.0	NA
119	28	21	F	swets	35	2	office	12	132.0	NA
119	28	21	F	swets	35	2	received	13	117.0	NA
119	28	21	F	swets	35	2	a	14	116.0	NA
119	28	21	F	swets	35	2	phone	15	99.0	NA
119	28	21	F	swets	35	2	call.	16	117.0	NA
119	28	21	F	Question	35	2	NA	NA	2726.0	0
120	28	21	F	Filler	88	5	The	1	279.0	NA
120	28	21	F	Filler	88	5	woman's	2	100.0	NA
120	28	21	F	Filler	88	5	posture	3	132.0	NA
120	28	21	F	Filler	88	5	began	4	100.0	NA
120	28	21	F	Filler	88	5	to	5	83.0	NA
120	28	21	F	Filler	88	5	go	6	168.0	NA
120	28	21	F	Filler	88	5	bad	7	117.0	NA
120	28	21	F	Filler	88	5	because	8	100.0	NA
120	28	21	F	Filler	88	5	of	9	136.0	NA
120	28	21	F	Filler	88	5	her	10	131.0	NA
120	28	21	F	Filler	88	5	constant	11	133.0	NA
120	28	21	F	Filler	88	5	slumping.	12	303.0	NA
120	28	21	F	Question	88	5	NA	NA	2241.0	1
121	28	21	F	Filler	98	5	The	1	311.0	NA
121	28	21	F	Filler	98	5	husband	2	103.0	NA
121	28	21	F	Filler	98	5	of	3	146.0	NA
121	28	21	F	Filler	98	5	the	4	119.0	NA
121	28	21	F	Filler	98	5	bestselling	5	134.0	NA
121	28	21	F	Filler	98	5	novelist	6	99.0	NA
121	28	21	F	Filler	98	5	was	7	116.0	NA
121	28	21	F	Filler	98	5	into	8	148.0	NA
121	28	21	F	Filler	98	5	collecting	9	117.0	NA
121	28	21	F	Filler	98	5	antiques.	10	101.0	NA
121	28	21	F	Question	98	5	NA	NA	1943.0	1
122	28	21	F	swets	16	1	The	1	64.0	NA
122	28	21	F	swets	16	1	uncle	2	115.0	NA
122	28	21	F	swets	16	1	of	3	133.0	NA
122	28	21	F	swets	16	1	the	4	152.0	NA
122	28	21	F	swets	16	1	general	5	166.0	NA
122	28	21	F	swets	16	1	who	6	4168.0	NA
122	28	21	F	swets	16	1	sacrificed	7	101.0	NA
122	28	21	F	swets	16	1	himself	8	102.0	NA
122	28	21	F	swets	16	1	for	9	132.0	NA
122	28	21	F	swets	16	1	the	10	134.0	NA
122	28	21	F	swets	16	1	cause	11	99.0	NA
122	28	21	F	swets	16	1	was	12	102.0	NA
122	28	21	F	swets	16	1	the	13	99.0	NA
122	28	21	F	swets	16	1	subject	14	118.0	NA
122	28	21	F	swets	16	1	of	15	166.0	NA
122	28	21	F	swets	16	1	the	16	135.0	NA
122	28	21	F	swets	16	1	biography.	17	134.0	NA
122	28	21	F	Question	16	1	NA	NA	6164.0	1
123	28	21	F	Filler	66	4	The	1	246.0	NA
123	28	21	F	Filler	66	4	rare	2	82.0	NA
123	28	21	F	Filler	66	4	and	3	84.0	NA
123	28	21	F	Filler	66	4	exotic	4	133.0	NA
123	28	21	F	Filler	66	4	monkey	5	67.0	NA
123	28	21	F	Filler	66	4	was	6	115.0	NA
123	28	21	F	Filler	66	4	the	7	101.0	NA
123	28	21	F	Filler	66	4	center	8	101.0	NA
123	28	21	F	Filler	66	4	of	9	115.0	NA
123	28	21	F	Filler	66	4	attention	10	100.0	NA
123	28	21	F	Filler	66	4	at	11	84.0	NA
123	28	21	F	Filler	66	4	the	12	147.0	NA
123	28	21	F	Filler	66	4	zoo.	13	152.0	NA
123	28	21	F	Question	66	4	NA	NA	1212.0	1
124	28	21	F	Filler	107	5	The	1	530.0	NA
124	28	21	F	Filler	107	5	citizens	2	83.0	NA
124	28	21	F	Filler	107	5	were	3	66.0	NA
124	28	21	F	Filler	107	5	dissatisfied	4	283.0	NA
124	28	21	F	Filler	107	5	with	5	102.0	NA
124	28	21	F	Filler	107	5	the	6	66.0	NA
124	28	21	F	Filler	107	5	mayor	7	134.0	NA
124	28	21	F	Filler	107	5	of	8	50.0	NA
124	28	21	F	Filler	107	5	town	9	83.0	NA
124	28	21	F	Filler	107	5	because	10	336.0	NA
124	28	21	F	Filler	107	5	he	11	65.0	NA
124	28	21	F	Filler	107	5	had	12	86.0	NA
124	28	21	F	Filler	107	5	little	13	98.0	NA
124	28	21	F	Filler	107	5	experience.	14	102.0	NA
124	28	21	F	Question	107	5	NA	NA	875.0	1
125	28	21	F	swets	5	2	The	1	177.0	NA
125	28	21	F	swets	5	2	aunt	2	84.0	NA
125	28	21	F	swets	5	2	of	3	101.0	NA
125	28	21	F	swets	5	2	the	4	99.0	NA
125	28	21	F	swets	5	2	bishop	5	67.0	NA
125	28	21	F	swets	5	2	who	6	101.0	NA
125	28	21	F	swets	5	2	injured	7	115.0	NA
125	28	21	F	swets	5	2	himself	8	118.0	NA
125	28	21	F	swets	5	2	last	9	119.0	NA
125	28	21	F	swets	5	2	summer	10	132.0	NA
125	28	21	F	swets	5	2	was	11	117.0	NA
125	28	21	F	swets	5	2	concerned	12	101.0	NA
125	28	21	F	swets	5	2	about	13	149.0	NA
125	28	21	F	swets	5	2	the	14	85.0	NA
125	28	21	F	swets	5	2	infection.	15	149.0	NA
125	28	21	F	Question	5	2	NA	NA	1292.0	0
126	28	21	F	Filler	38	4	Despite	1	230.0	NA
126	28	21	F	Filler	38	4	the	2	167.0	NA
126	28	21	F	Filler	38	4	lack	3	101.0	NA
126	28	21	F	Filler	38	4	of	4	132.0	NA
126	28	21	F	Filler	38	4	publicity	5	103.0	NA
126	28	21	F	Filler	38	4	many	6	81.0	NA
126	28	21	F	Filler	38	4	people	7	150.0	NA
126	28	21	F	Filler	38	4	attended	8	117.0	NA
126	28	21	F	Filler	38	4	the	9	133.0	NA
126	28	21	F	Filler	38	4	lecture.	10	136.0	NA
126	28	21	F	Question	38	4	NA	NA	976.0	1
127	28	21	F	Filler	67	4	The	1	128.0	NA
127	28	21	F	Filler	67	4	restaurant	2	102.0	NA
127	28	21	F	Filler	67	4	was	3	116.0	NA
127	28	21	F	Filler	67	4	famous	4	102.0	NA
127	28	21	F	Filler	67	4	for	5	149.0	NA
127	28	21	F	Filler	67	4	its	6	118.0	NA
127	28	21	F	Filler	67	4	French	7	298.0	NA
127	28	21	F	Filler	67	4	pastries	8	151.0	NA
127	28	21	F	Filler	67	4	and	9	333.0	NA
127	28	21	F	Filler	67	4	fine	10	201.0	NA
127	28	21	F	Filler	67	4	wines.	11	266.0	NA
127	28	21	F	Question	67	4	NA	NA	1390.0	1
128	28	21	F	Filler	72	4	The	1	145.0	NA
128	28	21	F	Filler	72	4	secretaries	2	165.0	NA
128	28	21	F	Filler	72	4	couldn't	3	120.0	NA
128	28	21	F	Filler	72	4	break	4	132.0	NA
128	28	21	F	Filler	72	4	away	5	82.0	NA
128	28	21	F	Filler	72	4	from	6	117.0	NA
128	28	21	F	Filler	72	4	their	7	84.0	NA
128	28	21	F	Filler	72	4	habit	8	84.0	NA
128	28	21	F	Filler	72	4	of	9	99.0	NA
128	28	21	F	Filler	72	4	coffee	10	101.0	NA
128	28	21	F	Filler	72	4	and	11	134.0	NA
128	28	21	F	Filler	72	4	cigarettes	12	101.0	NA
128	28	21	F	Filler	72	4	during	13	332.0	NA
128	28	21	F	Filler	72	4	their	14	117.0	NA
128	28	21	F	Filler	72	4	breaks.	15	202.0	NA
128	28	21	F	Question	72	4	NA	NA	926.0	1
129	28	21	F	Filler	76	5	After	1	45.0	NA
129	28	21	F	Filler	76	5	fifty	2	200.0	NA
129	28	21	F	Filler	76	5	years	3	85.0	NA
129	28	21	F	Filler	76	5	of	4	133.0	NA
129	28	21	F	Filler	76	5	marriage	5	84.0	NA
129	28	21	F	Filler	76	5	the	6	116.0	NA
129	28	21	F	Filler	76	5	old	7	151.0	NA
129	28	21	F	Filler	76	5	couple	8	116.0	NA
129	28	21	F	Filler	76	5	still	9	66.0	NA
129	28	21	F	Filler	76	5	felt	10	117.0	NA
129	28	21	F	Filler	76	5	the	11	67.0	NA
129	28	21	F	Filler	76	5	same	12	98.0	NA
129	28	21	F	Filler	76	5	about	13	168.0	NA
129	28	21	F	Filler	76	5	each	14	117.0	NA
129	28	21	F	Filler	76	5	other	15	116.0	NA
129	28	21	F	Filler	76	5	as	16	101.0	NA
129	28	21	F	Filler	76	5	they	17	182.0	NA
129	28	21	F	Filler	76	5	had	18	136.0	NA
129	28	21	F	Filler	76	5	on	19	134.0	NA
129	28	21	F	Filler	76	5	their	20	266.0	NA
129	28	21	F	Filler	76	5	wedding	21	216.0	NA
129	28	21	F	Filler	76	5	day.	22	301.0	NA
129	28	21	F	Question	76	5	NA	NA	1041.0	1
130	28	21	F	swets	31	1	The	1	78.0	NA
130	28	21	F	swets	31	1	uncle	2	116.0	NA
130	28	21	F	swets	31	1	of	3	69.0	NA
130	28	21	F	swets	31	1	the	4	133.0	NA
130	28	21	F	swets	31	1	milkman	5	120.0	NA
130	28	21	F	swets	31	1	who	6	132.0	NA
130	28	21	F	swets	31	1	had	7	100.0	NA
130	28	21	F	swets	31	1	to	8	100.0	NA
130	28	21	F	swets	31	1	support	9	483.0	NA
130	28	21	F	swets	31	1	himself	10	133.0	NA
130	28	21	F	swets	31	1	with	11	165.0	NA
130	28	21	F	swets	31	1	a	12	100.0	NA
130	28	21	F	swets	31	1	low	13	135.0	NA
130	28	21	F	swets	31	1	income	14	133.0	NA
130	28	21	F	swets	31	1	liked	15	167.0	NA
130	28	21	F	swets	31	1	to	16	132.0	NA
130	28	21	F	swets	31	1	fish.	17	135.0	NA
130	28	21	F	Question	31	1	NA	NA	3093.0	1
131	28	21	F	Filler	123	6	The	1	311.0	NA
131	28	21	F	Filler	123	6	student	2	134.0	NA
131	28	21	F	Filler	123	6	and	3	85.0	NA
131	28	21	F	Filler	123	6	professor	4	115.0	NA
131	28	21	F	Filler	123	6	went	5	101.0	NA
131	28	21	F	Filler	123	6	for	6	100.0	NA
131	28	21	F	Filler	123	6	a	7	264.0	NA
131	28	21	F	Filler	123	6	walk	8	116.0	NA
131	28	21	F	Filler	123	6	last	9	137.0	NA
131	28	21	F	Filler	123	6	Tuesday.	10	134.0	NA
131	28	21	F	Question	123	6	NA	NA	1043.0	1
132	28	21	F	Filler	126	6	The	1	226.0	NA
132	28	21	F	Filler	126	6	boxes	2	135.0	NA
132	28	21	F	Filler	126	6	and	3	67.0	NA
132	28	21	F	Filler	126	6	hangers	4	135.0	NA
132	28	21	F	Filler	126	6	had	5	99.0	NA
132	28	21	F	Filler	126	6	been	6	98.0	NA
132	28	21	F	Filler	126	6	stuffed	7	135.0	NA
132	28	21	F	Filler	126	6	in	8	132.0	NA
132	28	21	F	Filler	126	6	the	9	136.0	NA
132	28	21	F	Filler	126	6	closet.	10	133.0	NA
132	28	21	F	Question	126	6	NA	NA	2500.0	1
133	28	21	F	Filler	51	4	The	1	113.0	NA
133	28	21	F	Filler	51	4	students	2	100.0	NA
133	28	21	F	Filler	51	4	were	3	82.0	NA
133	28	21	F	Filler	51	4	in	4	103.0	NA
133	28	21	F	Filler	51	4	a	5	115.0	NA
133	28	21	F	Filler	51	4	frenzy	6	101.0	NA
133	28	21	F	Filler	51	4	because	7	100.0	NA
133	28	21	F	Filler	51	4	they	8	117.0	NA
133	28	21	F	Filler	51	4	wanted	9	333.0	NA
133	28	21	F	Filler	51	4	tickets	10	132.0	NA
133	28	21	F	Filler	51	4	for	11	85.0	NA
133	28	21	F	Filler	51	4	the	12	133.0	NA
133	28	21	F	Filler	51	4	game	13	134.0	NA
133	28	21	F	Filler	51	4	tonight.	14	101.0	NA
133	28	21	F	Question	51	4	NA	NA	1156.0	1
134	28	21	F	swets	29	2	The	1	212.0	NA
134	28	21	F	swets	29	2	daughter	2	84.0	NA
134	28	21	F	swets	29	2	of	3	81.0	NA
134	28	21	F	swets	29	2	the	4	101.0	NA
134	28	21	F	swets	29	2	colonel	5	82.0	NA
134	28	21	F	swets	29	2	who	6	100.0	NA
134	28	21	F	swets	29	2	enjoyed	7	120.0	NA
134	28	21	F	swets	29	2	himself	8	66.0	NA
134	28	21	F	swets	29	2	a	9	99.0	NA
134	28	21	F	swets	29	2	lot	10	134.0	NA
134	28	21	F	swets	29	2	was	11	116.0	NA
134	28	21	F	swets	29	2	out	12	132.0	NA
134	28	21	F	swets	29	2	on	13	118.0	NA
134	28	21	F	swets	29	2	the	14	117.0	NA
134	28	21	F	swets	29	2	balcony.	15	102.0	NA
134	28	21	F	Question	29	2	NA	NA	1207.0	1
135	28	21	F	Filler	117	6	While	1	243.0	NA
135	28	21	F	Filler	117	6	Mike	2	102.0	NA
135	28	21	F	Filler	117	6	coughed	3	115.0	NA
135	28	21	F	Filler	117	6	Janet	4	82.0	NA
135	28	21	F	Filler	117	6	went	5	117.0	NA
135	28	21	F	Filler	117	6	out	6	102.0	NA
135	28	21	F	Filler	117	6	to	7	99.0	NA
135	28	21	F	Filler	117	6	get	8	132.0	NA
135	28	21	F	Filler	117	6	some	9	117.0	NA
135	28	21	F	Filler	117	6	cough	10	101.0	NA
135	28	21	F	Filler	117	6	medicine.	11	100.0	NA
135	28	21	F	Question	117	6	NA	NA	6046.0	0
136	28	21	F	Filler	86	5	The	1	44.0	NA
136	28	21	F	Filler	86	5	family's	2	101.0	NA
136	28	21	F	Filler	86	5	television	3	68.0	NA
136	28	21	F	Filler	86	5	stopped	4	114.0	NA
136	28	21	F	Filler	86	5	working	5	69.0	NA
136	28	21	F	Filler	86	5	two	6	82.0	NA
136	28	21	F	Filler	86	5	days	7	101.0	NA
136	28	21	F	Filler	86	5	after	8	116.0	NA
136	28	21	F	Filler	86	5	the	9	82.0	NA
136	28	21	F	Filler	86	5	warranty	10	118.0	NA
136	28	21	F	Filler	86	5	expired.	11	132.0	NA
136	28	21	F	Question	86	5	NA	NA	774.0	1
137	28	21	F	Filler	144	7	The	1	93.0	NA
137	28	21	F	Filler	144	7	apple	2	69.0	NA
137	28	21	F	Filler	144	7	and	3	99.0	NA
137	28	21	F	Filler	144	7	potato	4	101.0	NA
137	28	21	F	Filler	144	7	went	5	100.0	NA
137	28	21	F	Filler	144	7	rotten	6	115.0	NA
137	28	21	F	Filler	144	7	after	7	86.0	NA
137	28	21	F	Filler	144	7	a	8	132.0	NA
137	28	21	F	Filler	144	7	week.	9	116.0	NA
137	28	21	F	Question	144	7	NA	NA	2396.0	1
138	28	21	F	Filler	120	6	Sarah	1	27.0	NA
138	28	21	F	Filler	120	6	won't	2	84.0	NA
138	28	21	F	Filler	120	6	reveal	3	100.0	NA
138	28	21	F	Filler	120	6	which	4	67.0	NA
138	28	21	F	Filler	120	6	race	5	100.0	NA
138	28	21	F	Filler	120	6	she	6	118.0	NA
138	28	21	F	Filler	120	6	won	7	99.0	NA
138	28	21	F	Filler	120	6	without	8	85.0	NA
138	28	21	F	Filler	120	6	entering	9	116.0	NA
138	28	21	F	Filler	120	6	the	10	98.0	NA
138	28	21	F	Filler	120	6	competition	11	103.0	NA
138	28	21	F	Filler	120	6	for	12	282.0	NA
138	28	21	F	Filler	120	6	officially.	13	135.0	NA
138	28	21	F	Question	120	6	NA	NA	3845.0	1
139	28	21	F	Filler	137	7	When	1	163.0	NA
139	28	21	F	Filler	137	7	Leslie	2	99.0	NA
139	28	21	F	Filler	137	7	was	3	68.0	NA
139	28	21	F	Filler	137	7	sneezing	4	103.0	NA
139	28	21	F	Filler	137	7	her	5	83.0	NA
139	28	21	F	Filler	137	7	friends	6	116.0	NA
139	28	21	F	Filler	137	7	laughed	7	83.0	NA
139	28	21	F	Filler	137	7	at	8	251.0	NA
139	28	21	F	Filler	137	7	her.	9	116.0	NA
139	28	21	F	Question	137	7	NA	NA	1111.0	1
140	28	21	F	Filler	115	6	As	1	46.0	NA
140	28	21	F	Filler	115	6	Elaine	2	117.0	NA
140	28	21	F	Filler	115	6	and	3	82.0	NA
140	28	21	F	Filler	115	6	Robert	4	101.0	NA
140	28	21	F	Filler	115	6	fought	5	84.0	NA
140	28	21	F	Filler	115	6	the	6	102.0	NA
140	28	21	F	Filler	115	6	mosquitoes	7	99.0	NA
140	28	21	F	Filler	115	6	whined	8	83.0	NA
140	28	21	F	Filler	115	6	annoyingly.	9	133.0	NA
140	28	21	F	Question	115	6	NA	NA	1343.0	1
141	28	21	F	Filler	70	4	The	1	245.0	NA
141	28	21	F	Filler	70	4	warden	2	102.0	NA
141	28	21	F	Filler	70	4	was	3	84.0	NA
141	28	21	F	Filler	70	4	dissatisfied	4	81.0	NA
141	28	21	F	Filler	70	4	with	5	68.0	NA
141	28	21	F	Filler	70	4	the	6	84.0	NA
141	28	21	F	Filler	70	4	decision	7	81.0	NA
141	28	21	F	Filler	70	4	of	8	84.0	NA
141	28	21	F	Filler	70	4	the	9	99.0	NA
141	28	21	F	Filler	70	4	parole	10	51.0	NA
141	28	21	F	Filler	70	4	committee	11	133.0	NA
141	28	21	F	Filler	70	4	to	12	84.0	NA
141	28	21	F	Filler	70	4	pardon	13	133.0	NA
141	28	21	F	Filler	70	4	the	14	84.0	NA
141	28	21	F	Filler	70	4	prisoner.	15	100.0	NA
141	28	21	F	Question	70	4	NA	NA	957.0	1
142	28	21	F	Filler	57	4	The	1	363.0	NA
142	28	21	F	Filler	57	4	architect	2	214.0	NA
142	28	21	F	Filler	57	4	was	3	118.0	NA
142	28	21	F	Filler	57	4	embarrassed	4	102.0	NA
142	28	21	F	Filler	57	4	by	5	82.0	NA
142	28	21	F	Filler	57	4	the	6	66.0	NA
142	28	21	F	Filler	57	4	memo	7	67.0	NA
142	28	21	F	Filler	57	4	of	8	84.0	NA
142	28	21	F	Filler	57	4	the	9	67.0	NA
142	28	21	F	Filler	57	4	engineer	10	67.0	NA
142	28	21	F	Filler	57	4	because	11	115.0	NA
142	28	21	F	Filler	57	4	it	12	49.0	NA
142	28	21	F	Filler	57	4	said	13	484.0	NA
142	28	21	F	Filler	57	4	that	14	68.0	NA
142	28	21	F	Filler	57	4	his	15	83.0	NA
142	28	21	F	Filler	57	4	building	16	101.0	NA
142	28	21	F	Filler	57	4	would	17	64.0	NA
142	28	21	F	Filler	57	4	collapse.	18	134.0	NA
142	28	21	F	Question	57	4	NA	NA	976.0	1
143	28	21	F	Filler	122	6	They	1	180.0	NA
143	28	21	F	Filler	122	6	don't	2	84.0	NA
143	28	21	F	Filler	122	6	know	3	98.0	NA
143	28	21	F	Filler	122	6	which	4	100.0	NA
143	28	21	F	Filler	122	6	family	5	84.0	NA
143	28	21	F	Filler	122	6	the	6	116.0	NA
143	28	21	F	Filler	122	6	hijackers	7	103.0	NA
143	28	21	F	Filler	122	6	held	8	116.0	NA
143	28	21	F	Filler	122	6	hostage	9	101.0	NA
143	28	21	F	Filler	122	6	but	10	147.0	NA
143	28	21	F	Filler	122	6	didn't	11	101.0	NA
143	28	21	F	Filler	122	6	hurt	12	101.0	NA
143	28	21	F	Filler	122	6	the	13	100.0	NA
143	28	21	F	Filler	122	6	children	14	116.0	NA
143	28	21	F	Filler	122	6	of	15	101.0	NA
143	28	21	F	Filler	122	6	too	16	132.0	NA
143	28	21	F	Filler	122	6	much.	17	118.0	NA
143	28	21	F	Question	122	6	NA	NA	1342.0	1
