trial	subj	age	gender	stimulustype	item	condition	word	position	rt	correct
0	30	21	F	Filler	73	5	My	1	246.0	NA
0	30	21	F	Filler	73	5	cousins	2	217.0	NA
0	30	21	F	Filler	73	5	admired	3	164.0	NA
0	30	21	F	Filler	73	5	the	4	184.0	NA
0	30	21	F	Filler	73	5	singer	5	201.0	NA
0	30	21	F	Filler	73	5	although	6	166.0	NA
0	30	21	F	Filler	73	5	she	7	217.0	NA
0	30	21	F	Filler	73	5	never	8	184.0	NA
0	30	21	F	Filler	73	5	became	9	217.0	NA
0	30	21	F	Filler	73	5	popular.	10	233.0	NA
0	30	21	F	Question	73	5	NA	NA	4480.0	1
1	30	21	F	swets	36	2	The	1	245.0	NA
1	30	21	F	swets	36	2	son	2	136.0	NA
1	30	21	F	swets	36	2	of	3	149.0	NA
1	30	21	F	swets	36	2	the	4	184.0	NA
1	30	21	F	swets	36	2	saleswoman	5	216.0	NA
1	30	21	F	swets	36	2	who	6	318.0	NA
1	30	21	F	swets	36	2	talked	7	350.0	NA
1	30	21	F	swets	36	2	to	8	317.0	NA
1	30	21	F	swets	36	2	herself	9	283.0	NA
1	30	21	F	swets	36	2	all	10	351.0	NA
1	30	21	F	swets	36	2	the	11	283.0	NA
1	30	21	F	swets	36	2	time	12	216.0	NA
1	30	21	F	swets	36	2	walked	13	266.0	NA
1	30	21	F	swets	36	2	into	14	267.0	NA
1	30	21	F	swets	36	2	the	15	268.0	NA
1	30	21	F	swets	36	2	room.	16	283.0	NA
1	30	21	F	Question	36	2	NA	NA	1995.0	1
2	30	21	F	Filler	41	4	While	1	246.0	NA
2	30	21	F	Filler	41	4	the	2	216.0	NA
2	30	21	F	Filler	41	4	babysitter	3	181.0	NA
2	30	21	F	Filler	41	4	watched	4	236.0	NA
2	30	21	F	Filler	41	4	soap	5	302.0	NA
2	30	21	F	Filler	41	4	operas	6	284.0	NA
2	30	21	F	Filler	41	4	the	7	264.0	NA
2	30	21	F	Filler	41	4	child	8	236.0	NA
2	30	21	F	Filler	41	4	poured	9	233.0	NA
2	30	21	F	Filler	41	4	honey	10	265.0	NA
2	30	21	F	Filler	41	4	all	11	252.0	NA
2	30	21	F	Filler	41	4	over	12	233.0	NA
2	30	21	F	Filler	41	4	the	13	218.0	NA
2	30	21	F	Filler	41	4	floor.	14	233.0	NA
2	30	21	F	Question	41	4	NA	NA	1311.0	1
3	30	21	F	Filler	45	4	The	1	311.0	NA
3	30	21	F	Filler	45	4	plumber	2	250.0	NA
3	30	21	F	Filler	45	4	repaired	3	200.0	NA
3	30	21	F	Filler	45	4	the	4	217.0	NA
3	30	21	F	Filler	45	4	sink	5	232.0	NA
3	30	21	F	Filler	45	4	of	6	269.0	NA
3	30	21	F	Filler	45	4	the	7	299.0	NA
3	30	21	F	Filler	45	4	tenant	8	416.0	NA
3	30	21	F	Filler	45	4	because	9	285.0	NA
3	30	21	F	Filler	45	4	he	10	220.0	NA
3	30	21	F	Filler	45	4	had	11	248.0	NA
3	30	21	F	Filler	45	4	just	12	184.0	NA
3	30	21	F	Filler	45	4	moved	13	199.0	NA
3	30	21	F	Filler	45	4	in.	14	200.0	NA
3	30	21	F	Question	45	4	NA	NA	1278.0	1
4	30	21	F	Filler	63	4	The	1	344.0	NA
4	30	21	F	Filler	63	4	bride	2	167.0	NA
4	30	21	F	Filler	63	4	was	3	171.0	NA
4	30	21	F	Filler	63	4	devastated	4	181.0	NA
4	30	21	F	Filler	63	4	to	5	217.0	NA
4	30	21	F	Filler	63	4	lose	6	183.0	NA
4	30	21	F	Filler	63	4	her	7	168.0	NA
4	30	21	F	Filler	63	4	gold	8	150.0	NA
4	30	21	F	Filler	63	4	ring	9	234.0	NA
4	30	21	F	Filler	63	4	with	10	301.0	NA
4	30	21	F	Filler	63	4	a	11	183.0	NA
4	30	21	F	Filler	63	4	gleaming	12	183.0	NA
4	30	21	F	Filler	63	4	diamond	13	234.0	NA
4	30	21	F	Filler	63	4	in	14	283.0	NA
4	30	21	F	Filler	63	4	the	15	250.0	NA
4	30	21	F	Filler	63	4	middle.	16	316.0	NA
4	30	21	F	Question	63	4	NA	NA	1445.0	1
5	30	21	F	Filler	40	4	The	1	312.0	NA
5	30	21	F	Filler	40	4	boy's	2	100.0	NA
5	30	21	F	Filler	40	4	mother	3	149.0	NA
5	30	21	F	Filler	40	4	was	4	151.0	NA
5	30	21	F	Filler	40	4	very	5	167.0	NA
5	30	21	F	Filler	40	4	happy	6	184.0	NA
5	30	21	F	Filler	40	4	to	7	184.0	NA
5	30	21	F	Filler	40	4	see	8	182.0	NA
5	30	21	F	Filler	40	4	good	9	168.0	NA
5	30	21	F	Filler	40	4	grades	10	199.0	NA
5	30	21	F	Filler	40	4	on	11	252.0	NA
5	30	21	F	Filler	40	4	his	12	182.0	NA
5	30	21	F	Filler	40	4	report	13	234.0	NA
5	30	21	F	Filler	40	4	card.	14	234.0	NA
5	30	21	F	Question	40	4	NA	NA	1306.0	1
6	30	21	F	swets	26	1	The	1	681.0	NA
6	30	21	F	swets	26	1	grand-nephew	2	167.0	NA
6	30	21	F	swets	26	1	of	3	484.0	NA
6	30	21	F	swets	26	1	the	4	299.0	NA
6	30	21	F	swets	26	1	admiral	5	333.0	NA
6	30	21	F	swets	26	1	who	6	384.0	NA
6	30	21	F	swets	26	1	wrote	7	401.0	NA
6	30	21	F	swets	26	1	himself	8	383.0	NA
6	30	21	F	swets	26	1	a	9	282.0	NA
6	30	21	F	swets	26	1	note	10	216.0	NA
6	30	21	F	swets	26	1	admired	11	218.0	NA
6	30	21	F	swets	26	1	sailors	12	267.0	NA
6	30	21	F	swets	26	1	very	13	282.0	NA
6	30	21	F	swets	26	1	much.	14	253.0	NA
6	30	21	F	Question	26	1	NA	NA	2493.0	1
7	30	21	F	Filler	87	5	The	1	614.0	NA
7	30	21	F	Filler	87	5	car	2	281.0	NA
7	30	21	F	Filler	87	5	chased	3	268.0	NA
7	30	21	F	Filler	87	5	the	4	200.0	NA
7	30	21	F	Filler	87	5	robber	5	167.0	NA
7	30	21	F	Filler	87	5	of	6	200.0	NA
7	30	21	F	Filler	87	5	the	7	216.0	NA
7	30	21	F	Filler	87	5	bank	8	215.0	NA
7	30	21	F	Filler	87	5	into	9	166.0	NA
7	30	21	F	Filler	87	5	a	10	152.0	NA
7	30	21	F	Filler	87	5	narrow	11	234.0	NA
7	30	21	F	Filler	87	5	alley.	12	199.0	NA
7	30	21	F	Question	87	5	NA	NA	2065.0	1
8	30	21	F	swets	19	3	The	1	362.0	NA
8	30	21	F	swets	19	3	mistress	2	217.0	NA
8	30	21	F	swets	19	3	of	3	150.0	NA
8	30	21	F	swets	19	3	the	4	234.0	NA
8	30	21	F	swets	19	3	actor	5	183.0	NA
8	30	21	F	swets	19	3	who	6	233.0	NA
8	30	21	F	swets	19	3	hated	7	218.0	NA
8	30	21	F	swets	19	3	herself	8	248.0	NA
8	30	21	F	swets	19	3	for	9	720.0	NA
8	30	21	F	swets	19	3	lying	10	368.0	NA
8	30	21	F	swets	19	3	left	11	533.0	NA
8	30	21	F	swets	19	3	town	12	467.0	NA
8	30	21	F	swets	19	3	in	13	350.0	NA
8	30	21	F	swets	19	3	a	14	299.0	NA
8	30	21	F	swets	19	3	hurry.	15	435.0	NA
8	30	21	F	Question	19	3	NA	NA	2476.0	1
9	30	21	F	Filler	114	6	While	1	696.0	NA
9	30	21	F	Filler	114	6	the	2	267.0	NA
9	30	21	F	Filler	114	6	winners	3	3085.0	NA
9	30	21	F	Filler	114	6	were	4	416.0	NA
9	30	21	F	Filler	114	6	kissing	5	219.0	NA
9	30	21	F	Filler	114	6	the	6	301.0	NA
9	30	21	F	Filler	114	6	crowd	7	216.0	NA
9	30	21	F	Filler	114	6	cheered	8	214.0	NA
9	30	21	F	Filler	114	6	wildly.	9	219.0	NA
9	30	21	F	Question	114	6	NA	NA	1278.0	1
10	30	21	F	swets	8	1	The	1	395.0	NA
10	30	21	F	swets	8	1	sister	2	133.0	NA
10	30	21	F	swets	8	1	of	3	166.0	NA
10	30	21	F	swets	8	1	the	4	151.0	NA
10	30	21	F	swets	8	1	seamstress	5	116.0	NA
10	30	21	F	swets	8	1	who	6	267.0	NA
10	30	21	F	swets	8	1	entertained	7	250.0	NA
10	30	21	F	swets	8	1	herself	8	199.0	NA
10	30	21	F	swets	8	1	most	9	251.0	NA
10	30	21	F	swets	8	1	evenings	10	235.0	NA
10	30	21	F	swets	8	1	was	11	250.0	NA
10	30	21	F	swets	8	1	reading	12	234.0	NA
10	30	21	F	swets	8	1	a	13	233.0	NA
10	30	21	F	swets	8	1	book.	14	282.0	NA
10	30	21	F	Question	8	1	NA	NA	1544.0	1
11	30	21	F	Filler	141	7	The	1	395.0	NA
11	30	21	F	Filler	141	7	nurse	2	136.0	NA
11	30	21	F	Filler	141	7	and	3	184.0	NA
11	30	21	F	Filler	141	7	custodian	4	165.0	NA
11	30	21	F	Filler	141	7	chatted	5	151.0	NA
11	30	21	F	Filler	141	7	during	6	200.0	NA
11	30	21	F	Filler	141	7	their	7	134.0	NA
11	30	21	F	Filler	141	7	break.	8	168.0	NA
11	30	21	F	Question	141	7	NA	NA	1742.0	1
12	30	21	F	Filler	130	7	While	1	312.0	NA
12	30	21	F	Filler	130	7	Margo	2	100.0	NA
12	30	21	F	Filler	130	7	bathed	3	115.0	NA
12	30	21	F	Filler	130	7	the	4	119.0	NA
12	30	21	F	Filler	130	7	dog	5	133.0	NA
12	30	21	F	Filler	130	7	barked	6	115.0	NA
12	30	21	F	Filler	130	7	in	7	267.0	NA
12	30	21	F	Filler	130	7	the	8	202.0	NA
12	30	21	F	Filler	130	7	yard.	9	149.0	NA
12	30	21	F	Question	130	7	NA	NA	2846.0	1
13	30	21	F	Filler	129	7	While	1	429.0	NA
13	30	21	F	Filler	129	7	Scott	2	85.0	NA
13	30	21	F	Filler	129	7	vacuumed	3	98.0	NA
13	30	21	F	Filler	129	7	the	4	166.0	NA
13	30	21	F	Filler	129	7	carpet	5	183.0	NA
13	30	21	F	Filler	129	7	the	6	136.0	NA
13	30	21	F	Filler	129	7	drapes	7	164.0	NA
13	30	21	F	Filler	129	7	flapped	8	167.0	NA
13	30	21	F	Filler	129	7	in	9	168.0	NA
13	30	21	F	Filler	129	7	the	10	281.0	NA
13	30	21	F	Filler	129	7	breeze.	11	119.0	NA
13	30	21	F	Question	129	7	NA	NA	1877.0	1
14	30	21	F	swets	25	3	The	1	296.0	NA
14	30	21	F	swets	25	3	grandfather	2	117.0	NA
14	30	21	F	swets	25	3	of	3	133.0	NA
14	30	21	F	swets	25	3	the	4	133.0	NA
14	30	21	F	swets	25	3	stewardess	5	84.0	NA
14	30	21	F	swets	25	3	who	6	152.0	NA
14	30	21	F	swets	25	3	treated	7	167.0	NA
14	30	21	F	swets	25	3	himself	8	115.0	NA
14	30	21	F	swets	25	3	to	9	301.0	NA
14	30	21	F	swets	25	3	an	10	351.0	NA
14	30	21	F	swets	25	3	ice-cream	11	266.0	NA
14	30	21	F	swets	25	3	cone	12	282.0	NA
14	30	21	F	swets	25	3	was	13	317.0	NA
14	30	21	F	swets	25	3	waiting	14	267.0	NA
14	30	21	F	swets	25	3	at	15	232.0	NA
14	30	21	F	swets	25	3	home.	16	302.0	NA
14	30	21	F	Question	25	3	NA	NA	1746.0	0
15	30	21	F	Filler	108	5	The	1	379.0	NA
15	30	21	F	Filler	108	5	museum	2	132.0	NA
15	30	21	F	Filler	108	5	wing	3	102.0	NA
15	30	21	F	Filler	108	5	which	4	83.0	NA
15	30	21	F	Filler	108	5	housed	5	101.0	NA
15	30	21	F	Filler	108	5	all	6	165.0	NA
15	30	21	F	Filler	108	5	the	7	84.0	NA
15	30	21	F	Filler	108	5	Picasso	8	149.0	NA
15	30	21	F	Filler	108	5	paintings	9	401.0	NA
15	30	21	F	Filler	108	5	was	10	201.0	NA
15	30	21	F	Filler	108	5	very	11	167.0	NA
15	30	21	F	Filler	108	5	crowded.	12	217.0	NA
15	30	21	F	Question	108	5	NA	NA	3494.0	1
16	30	21	F	Filler	105	5	The	1	312.0	NA
16	30	21	F	Filler	105	5	actors	2	99.0	NA
16	30	21	F	Filler	105	5	rehearsed	3	165.0	NA
16	30	21	F	Filler	105	5	the	4	135.0	NA
16	30	21	F	Filler	105	5	play	5	100.0	NA
16	30	21	F	Filler	105	5	so	6	134.0	NA
16	30	21	F	Filler	105	5	much	7	165.0	NA
16	30	21	F	Filler	105	5	that	8	318.0	NA
16	30	21	F	Filler	105	5	they	9	233.0	NA
16	30	21	F	Filler	105	5	became	10	117.0	NA
16	30	21	F	Filler	105	5	bored	11	165.0	NA
16	30	21	F	Filler	105	5	with	12	202.0	NA
16	30	21	F	Filler	105	5	it.	13	181.0	NA
16	30	21	F	Question	105	5	NA	NA	1814.0	1
17	30	21	F	Filler	79	5	Although	1	247.0	NA
17	30	21	F	Filler	79	5	the	2	99.0	NA
17	30	21	F	Filler	79	5	mechanic	3	117.0	NA
17	30	21	F	Filler	79	5	said	4	133.0	NA
17	30	21	F	Filler	79	5	the	5	133.0	NA
17	30	21	F	Filler	79	5	job	6	116.0	NA
17	30	21	F	Filler	79	5	would	7	151.0	NA
17	30	21	F	Filler	79	5	take	8	267.0	NA
17	30	21	F	Filler	79	5	four	9	151.0	NA
17	30	21	F	Filler	79	5	days	10	149.0	NA
17	30	21	F	Filler	79	5	the	11	153.0	NA
17	30	21	F	Filler	79	5	client	12	150.0	NA
17	30	21	F	Filler	79	5	didn't	13	183.0	NA
17	30	21	F	Filler	79	5	receive	14	215.0	NA
17	30	21	F	Filler	79	5	her	15	185.0	NA
17	30	21	F	Filler	79	5	car	16	201.0	NA
17	30	21	F	Filler	79	5	for	17	200.0	NA
17	30	21	F	Filler	79	5	six	18	233.0	NA
17	30	21	F	Filler	79	5	weeks.	19	201.0	NA
17	30	21	F	Question	79	5	NA	NA	1607.0	1
18	30	21	F	swets	18	2	The	1	411.0	NA
18	30	21	F	swets	18	2	niece	2	84.0	NA
18	30	21	F	swets	18	2	of	3	117.0	NA
18	30	21	F	swets	18	2	the	4	117.0	NA
18	30	21	F	swets	18	2	fisherman	5	166.0	NA
18	30	21	F	swets	18	2	who	6	118.0	NA
18	30	21	F	swets	18	2	drowned	7	217.0	NA
18	30	21	F	swets	18	2	himself	8	132.0	NA
18	30	21	F	swets	18	2	in	9	218.0	NA
18	30	21	F	swets	18	2	the	10	250.0	NA
18	30	21	F	swets	18	2	ocean	11	167.0	NA
18	30	21	F	swets	18	2	didn't	12	166.0	NA
18	30	21	F	swets	18	2	know	13	181.0	NA
18	30	21	F	swets	18	2	about	14	152.0	NA
18	30	21	F	swets	18	2	the	15	199.0	NA
18	30	21	F	swets	18	2	tricky	16	270.0	NA
18	30	21	F	swets	18	2	current.	17	265.0	NA
18	30	21	F	Question	18	2	NA	NA	2010.0	1
19	30	21	F	Filler	107	5	The	1	278.0	NA
19	30	21	F	Filler	107	5	citizens	2	116.0	NA
19	30	21	F	Filler	107	5	were	3	117.0	NA
19	30	21	F	Filler	107	5	dissatisfied	4	102.0	NA
19	30	21	F	Filler	107	5	with	5	133.0	NA
19	30	21	F	Filler	107	5	the	6	351.0	NA
19	30	21	F	Filler	107	5	mayor	7	333.0	NA
19	30	21	F	Filler	107	5	of	8	366.0	NA
19	30	21	F	Filler	107	5	town	9	234.0	NA
19	30	21	F	Filler	107	5	because	10	767.0	NA
19	30	21	F	Filler	107	5	he	11	216.0	NA
19	30	21	F	Filler	107	5	had	12	250.0	NA
19	30	21	F	Filler	107	5	little	13	251.0	NA
19	30	21	F	Filler	107	5	experience.	14	567.0	NA
19	30	21	F	Question	107	5	NA	NA	1311.0	1
20	30	21	F	Filler	126	6	The	1	346.0	NA
20	30	21	F	Filler	126	6	boxes	2	100.0	NA
20	30	21	F	Filler	126	6	and	3	133.0	NA
20	30	21	F	Filler	126	6	hangers	4	151.0	NA
20	30	21	F	Filler	126	6	had	5	149.0	NA
20	30	21	F	Filler	126	6	been	6	149.0	NA
20	30	21	F	Filler	126	6	stuffed	7	133.0	NA
20	30	21	F	Filler	126	6	in	8	118.0	NA
20	30	21	F	Filler	126	6	the	9	183.0	NA
20	30	21	F	Filler	126	6	closet.	10	150.0	NA
20	30	21	F	Question	126	6	NA	NA	1577.0	1
21	30	21	F	Filler	54	4	The	1	330.0	NA
21	30	21	F	Filler	54	4	video	2	167.0	NA
21	30	21	F	Filler	54	4	screen	3	152.0	NA
21	30	21	F	Filler	54	4	of	4	183.0	NA
21	30	21	F	Filler	54	4	the	5	249.0	NA
21	30	21	F	Filler	54	4	monitor	6	183.0	NA
21	30	21	F	Filler	54	4	made	7	182.0	NA
21	30	21	F	Filler	54	4	strange	8	201.0	NA
21	30	21	F	Filler	54	4	noises	9	218.0	NA
21	30	21	F	Filler	54	4	and	10	215.0	NA
21	30	21	F	Filler	54	4	started	11	217.0	NA
21	30	21	F	Filler	54	4	emitting	12	185.0	NA
21	30	21	F	Filler	54	4	strange	13	199.0	NA
21	30	21	F	Filler	54	4	flashes.	14	235.0	NA
21	30	21	F	Question	54	4	NA	NA	1312.0	1
22	30	21	F	Filler	76	5	After	1	329.0	NA
22	30	21	F	Filler	76	5	fifty	2	99.0	NA
22	30	21	F	Filler	76	5	years	3	117.0	NA
22	30	21	F	Filler	76	5	of	4	133.0	NA
22	30	21	F	Filler	76	5	marriage	5	118.0	NA
22	30	21	F	Filler	76	5	the	6	167.0	NA
22	30	21	F	Filler	76	5	old	7	149.0	NA
22	30	21	F	Filler	76	5	couple	8	183.0	NA
22	30	21	F	Filler	76	5	still	9	117.0	NA
22	30	21	F	Filler	76	5	felt	10	183.0	NA
22	30	21	F	Filler	76	5	the	11	134.0	NA
22	30	21	F	Filler	76	5	same	12	150.0	NA
22	30	21	F	Filler	76	5	about	13	134.0	NA
22	30	21	F	Filler	76	5	each	14	150.0	NA
22	30	21	F	Filler	76	5	other	15	219.0	NA
22	30	21	F	Filler	76	5	as	16	282.0	NA
22	30	21	F	Filler	76	5	they	17	266.0	NA
22	30	21	F	Filler	76	5	had	18	185.0	NA
22	30	21	F	Filler	76	5	on	19	168.0	NA
22	30	21	F	Filler	76	5	their	20	248.0	NA
22	30	21	F	Filler	76	5	wedding	21	233.0	NA
22	30	21	F	Filler	76	5	day.	22	251.0	NA
22	30	21	F	Question	76	5	NA	NA	1575.0	1
23	30	21	F	Filler	101	5	The	1	579.0	NA
23	30	21	F	Filler	101	5	friendly	2	283.0	NA
23	30	21	F	Filler	101	5	woman	3	232.0	NA
23	30	21	F	Filler	101	5	was	4	232.0	NA
23	30	21	F	Filler	101	5	insulted	5	118.0	NA
23	30	21	F	Filler	101	5	by	6	134.0	NA
23	30	21	F	Filler	101	5	the	7	166.0	NA
23	30	21	F	Filler	101	5	rude	8	149.0	NA
23	30	21	F	Filler	101	5	stranger	9	118.0	NA
23	30	21	F	Filler	101	5	because	10	182.0	NA
23	30	21	F	Filler	101	5	he	11	134.0	NA
23	30	21	F	Filler	101	5	didn't	12	132.0	NA
23	30	21	F	Filler	101	5	smile	13	337.0	NA
23	30	21	F	Filler	101	5	at	14	183.0	NA
23	30	21	F	Filler	101	5	her.	15	98.0	NA
23	30	21	F	Question	101	5	NA	NA	5743.0	0
24	30	21	F	Filler	47	4	The	1	1610.0	NA
24	30	21	F	Filler	47	4	boys	2	521.0	NA
24	30	21	F	Filler	47	4	all	3	300.0	NA
24	30	21	F	Filler	47	4	admired	4	283.0	NA
24	30	21	F	Filler	47	4	the	5	248.0	NA
24	30	21	F	Filler	47	4	singer	6	252.0	NA
24	30	21	F	Filler	47	4	of	7	316.0	NA
24	30	21	F	Filler	47	4	the	8	249.0	NA
24	30	21	F	Filler	47	4	song	9	269.0	NA
24	30	21	F	Filler	47	4	with	10	517.0	NA
24	30	21	F	Filler	47	4	the	11	284.0	NA
24	30	21	F	Filler	47	4	long	12	265.0	NA
24	30	21	F	Filler	47	4	eyelashes.	13	500.0	NA
24	30	21	F	Question	47	4	NA	NA	2480.0	1
25	30	21	F	Filler	61	4	The	1	1147.0	NA
25	30	21	F	Filler	61	4	lemon	2	419.0	NA
25	30	21	F	Filler	61	4	squirted	3	380.0	NA
25	30	21	F	Filler	61	4	into	4	269.0	NA
25	30	21	F	Filler	61	4	the	5	283.0	NA
25	30	21	F	Filler	61	4	debutante's	6	217.0	NA
25	30	21	F	Filler	61	4	eye	7	366.0	NA
25	30	21	F	Filler	61	4	as	8	366.0	NA
25	30	21	F	Filler	61	4	she	9	250.0	NA
25	30	21	F	Filler	61	4	tried	10	233.0	NA
25	30	21	F	Filler	61	4	to	11	219.0	NA
25	30	21	F	Filler	61	4	impress	12	232.0	NA
25	30	21	F	Filler	61	4	her	13	235.0	NA
25	30	21	F	Filler	61	4	mother's	14	269.0	NA
25	30	21	F	Filler	61	4	society	15	281.0	NA
25	30	21	F	Filler	61	4	friends.	16	334.0	NA
25	30	21	F	Question	61	4	NA	NA	1376.0	1
26	30	21	F	Filler	103	5	The	1	361.0	NA
26	30	21	F	Filler	103	5	desperate	2	334.0	NA
26	30	21	F	Filler	103	5	thief	3	319.0	NA
26	30	21	F	Filler	103	5	ran	4	282.0	NA
26	30	21	F	Filler	103	5	over	5	267.0	NA
26	30	21	F	Filler	103	5	a	6	216.0	NA
26	30	21	F	Filler	103	5	child	7	250.0	NA
26	30	21	F	Filler	103	5	in	8	251.0	NA
26	30	21	F	Filler	103	5	an	9	166.0	NA
26	30	21	F	Filler	103	5	attempt	10	182.0	NA
26	30	21	F	Filler	103	5	to	11	168.0	NA
26	30	21	F	Filler	103	5	dodge	12	167.0	NA
26	30	21	F	Filler	103	5	the	13	183.0	NA
26	30	21	F	Filler	103	5	cops.	14	182.0	NA
26	30	21	F	Question	103	5	NA	NA	1276.0	0
27	30	21	F	swets	32	1	The	1	480.0	NA
27	30	21	F	swets	32	1	niece	2	166.0	NA
27	30	21	F	swets	32	1	of	3	117.0	NA
27	30	21	F	swets	32	1	the	4	118.0	NA
27	30	21	F	swets	32	1	duchess	5	282.0	NA
27	30	21	F	swets	32	1	who	6	218.0	NA
27	30	21	F	swets	32	1	looked	7	166.0	NA
27	30	21	F	swets	32	1	at	8	231.0	NA
27	30	21	F	swets	32	1	herself	9	167.0	NA
27	30	21	F	swets	32	1	in	10	335.0	NA
27	30	21	F	swets	32	1	the	11	217.0	NA
27	30	21	F	swets	32	1	mirror	12	185.0	NA
27	30	21	F	swets	32	1	wore	13	350.0	NA
27	30	21	F	swets	32	1	a	14	266.0	NA
27	30	21	F	swets	32	1	blue	15	265.0	NA
27	30	21	F	swets	32	1	shirt.	16	267.0	NA
27	30	21	F	Question	32	1	NA	NA	2410.0	1
28	30	21	F	Filler	38	4	Despite	1	1127.0	NA
28	30	21	F	Filler	38	4	the	2	201.0	NA
28	30	21	F	Filler	38	4	lack	3	233.0	NA
28	30	21	F	Filler	38	4	of	4	134.0	NA
28	30	21	F	Filler	38	4	publicity	5	165.0	NA
28	30	21	F	Filler	38	4	many	6	136.0	NA
28	30	21	F	Filler	38	4	people	7	349.0	NA
28	30	21	F	Filler	38	4	attended	8	267.0	NA
28	30	21	F	Filler	38	4	the	9	198.0	NA
28	30	21	F	Filler	38	4	lecture.	10	151.0	NA
28	30	21	F	Question	38	4	NA	NA	1144.0	1
29	30	21	F	Filler	128	7	While	1	295.0	NA
29	30	21	F	Filler	128	7	the	2	185.0	NA
29	30	21	F	Filler	128	7	man	3	133.0	NA
29	30	21	F	Filler	128	7	was	4	117.0	NA
29	30	21	F	Filler	128	7	walking	5	148.0	NA
29	30	21	F	Filler	128	7	the	6	119.0	NA
29	30	21	F	Filler	128	7	poodle	7	131.0	NA
29	30	21	F	Filler	128	7	barked	8	117.0	NA
29	30	21	F	Filler	128	7	loudly.	9	166.0	NA
29	30	21	F	Question	128	7	NA	NA	2545.0	1
30	30	21	F	Filler	75	5	The	1	463.0	NA
30	30	21	F	Filler	75	5	musician	2	165.0	NA
30	30	21	F	Filler	75	5	shocked	3	117.0	NA
30	30	21	F	Filler	75	5	the	4	120.0	NA
30	30	21	F	Filler	75	5	audience	5	115.0	NA
30	30	21	F	Filler	75	5	because	6	102.0	NA
30	30	21	F	Filler	75	5	they	7	151.0	NA
30	30	21	F	Filler	75	5	did	8	117.0	NA
30	30	21	F	Filler	75	5	not	9	131.0	NA
30	30	21	F	Filler	75	5	realize	10	100.0	NA
30	30	21	F	Filler	75	5	what	11	168.0	NA
30	30	21	F	Filler	75	5	these	12	67.0	NA
30	30	21	F	Filler	75	5	shows	13	134.0	NA
30	30	21	F	Filler	75	5	were	14	266.0	NA
30	30	21	F	Filler	75	5	like.	15	182.0	NA
30	30	21	F	Question	75	5	NA	NA	4178.0	0
31	30	21	F	swets	22	3	The	1	347.0	NA
31	30	21	F	swets	22	3	niece	2	99.0	NA
31	30	21	F	swets	22	3	of	3	101.0	NA
31	30	21	F	swets	22	3	the	4	116.0	NA
31	30	21	F	swets	22	3	commander	5	116.0	NA
31	30	21	F	swets	22	3	who	6	116.0	NA
31	30	21	F	swets	22	3	calmed	7	118.0	NA
31	30	21	F	swets	22	3	herself	8	119.0	NA
31	30	21	F	swets	22	3	after	9	249.0	NA
31	30	21	F	swets	22	3	the	10	418.0	NA
31	30	21	F	swets	22	3	tragedy	11	298.0	NA
31	30	21	F	swets	22	3	was	12	249.0	NA
31	30	21	F	swets	22	3	waiting	13	253.0	NA
31	30	21	F	swets	22	3	for	14	200.0	NA
31	30	21	F	swets	22	3	the	15	250.0	NA
31	30	21	F	swets	22	3	doctor.	16	283.0	NA
31	30	21	F	Question	22	3	NA	NA	2694.0	0
32	30	21	F	Filler	136	7	While	1	346.0	NA
32	30	21	F	Filler	136	7	Mark	2	115.0	NA
32	30	21	F	Filler	136	7	and	3	118.0	NA
32	30	21	F	Filler	136	7	Jenny	4	118.0	NA
32	30	21	F	Filler	136	7	were	5	166.0	NA
32	30	21	F	Filler	136	7	cuddling	6	118.0	NA
32	30	21	F	Filler	136	7	the	7	166.0	NA
32	30	21	F	Filler	136	7	older	8	183.0	NA
32	30	21	F	Filler	136	7	dogs	9	251.0	NA
32	30	21	F	Filler	136	7	the	10	252.0	NA
32	30	21	F	Filler	136	7	puppies	11	298.0	NA
32	30	21	F	Filler	136	7	nipped	12	751.0	NA
32	30	21	F	Filler	136	7	at	13	500.0	NA
32	30	21	F	Filler	136	7	their	14	383.0	NA
32	30	21	F	Filler	136	7	feet.	15	451.0	NA
32	30	21	F	Question	136	7	NA	NA	3496.0	1
33	30	21	F	Filler	132	7	While	1	346.0	NA
33	30	21	F	Filler	132	7	John	2	99.0	NA
33	30	21	F	Filler	132	7	and	3	68.0	NA
33	30	21	F	Filler	132	7	Mary	4	482.0	NA
33	30	21	F	Filler	132	7	kissed	5	554.0	NA
33	30	21	F	Filler	132	7	their	6	267.0	NA
33	30	21	F	Filler	132	7	daughter	7	231.0	NA
33	30	21	F	Filler	132	7	fell	8	234.0	NA
33	30	21	F	Filler	132	7	asleep.	9	268.0	NA
33	30	21	F	Question	132	7	NA	NA	1873.0	1
34	30	21	F	swets	2	1	The	1	362.0	NA
34	30	21	F	swets	2	1	uncle	2	250.0	NA
34	30	21	F	swets	2	1	of	3	183.0	NA
34	30	21	F	swets	2	1	the	4	150.0	NA
34	30	21	F	swets	2	1	fireman	5	166.0	NA
34	30	21	F	swets	2	1	who	6	185.0	NA
34	30	21	F	swets	2	1	criticized	7	167.0	NA
34	30	21	F	swets	2	1	himself	8	217.0	NA
34	30	21	F	swets	2	1	far	9	232.0	NA
34	30	21	F	swets	2	1	too	10	251.0	NA
34	30	21	F	swets	2	1	often	11	250.0	NA
34	30	21	F	swets	2	1	was	12	316.0	NA
34	30	21	F	swets	2	1	painting	13	198.0	NA
34	30	21	F	swets	2	1	the	14	302.0	NA
34	30	21	F	swets	2	1	bedroom.	15	266.0	NA
34	30	21	F	Question	2	1	NA	NA	3028.0	1
35	30	21	F	Filler	46	4	The	1	281.0	NA
35	30	21	F	Filler	46	4	preacher	2	165.0	NA
35	30	21	F	Filler	46	4	of	3	166.0	NA
35	30	21	F	Filler	46	4	the	4	136.0	NA
35	30	21	F	Filler	46	4	congregation	5	116.0	NA
35	30	21	F	Filler	46	4	had	6	149.0	NA
35	30	21	F	Filler	46	4	given	7	268.0	NA
35	30	21	F	Filler	46	4	a	8	331.0	NA
35	30	21	F	Filler	46	4	sermon	9	234.0	NA
35	30	21	F	Filler	46	4	at	10	218.0	NA
35	30	21	F	Filler	46	4	a	11	251.0	NA
35	30	21	F	Filler	46	4	local	12	216.0	NA
35	30	21	F	Filler	46	4	school.	13	182.0	NA
35	30	21	F	Question	46	4	NA	NA	2044.0	1
36	30	21	F	Filler	111	6	While	1	262.0	NA
36	30	21	F	Filler	111	6	the	2	117.0	NA
36	30	21	F	Filler	111	6	clown	3	134.0	NA
36	30	21	F	Filler	111	6	juggled	4	132.0	NA
36	30	21	F	Filler	111	6	the	5	134.0	NA
36	30	21	F	Filler	111	6	balls	6	133.0	NA
36	30	21	F	Filler	111	6	fell	7	132.0	NA
36	30	21	F	Filler	111	6	to	8	219.0	NA
36	30	21	F	Filler	111	6	the	9	382.0	NA
36	30	21	F	Filler	111	6	ground.	10	369.0	NA
36	30	21	F	Question	111	6	NA	NA	1144.0	1
37	30	21	F	Filler	68	4	The	1	279.0	NA
37	30	21	F	Filler	68	4	scientist	2	148.0	NA
37	30	21	F	Filler	68	4	published	3	134.0	NA
37	30	21	F	Filler	68	4	a	4	101.0	NA
37	30	21	F	Filler	68	4	paper	5	117.0	NA
37	30	21	F	Filler	68	4	in	6	117.0	NA
37	30	21	F	Filler	68	4	the	7	133.0	NA
37	30	21	F	Filler	68	4	journal	8	119.0	NA
37	30	21	F	Filler	68	4	of	9	149.0	NA
37	30	21	F	Filler	68	4	the	10	151.0	NA
37	30	21	F	Filler	68	4	foreign	11	131.0	NA
37	30	21	F	Filler	68	4	organization.	12	369.0	NA
37	30	21	F	Question	68	4	NA	NA	2391.0	0
38	30	21	F	Filler	96	5	The	1	429.0	NA
38	30	21	F	Filler	96	5	evil	2	84.0	NA
38	30	21	F	Filler	96	5	man	3	97.0	NA
38	30	21	F	Filler	96	5	watched	4	101.0	NA
38	30	21	F	Filler	96	5	the	5	118.0	NA
38	30	21	F	Filler	96	5	doorway	6	117.0	NA
38	30	21	F	Filler	96	5	of	7	164.0	NA
38	30	21	F	Filler	96	5	the	8	150.0	NA
38	30	21	F	Filler	96	5	bar	9	134.0	NA
38	30	21	F	Filler	96	5	every	10	332.0	NA
38	30	21	F	Filler	96	5	Friday	11	202.0	NA
38	30	21	F	Filler	96	5	night.	12	285.0	NA
38	30	21	F	Question	96	5	NA	NA	1979.0	1
39	30	21	F	Filler	90	5	The	1	412.0	NA
39	30	21	F	Filler	90	5	artist	2	184.0	NA
39	30	21	F	Filler	90	5	was	3	166.0	NA
39	30	21	F	Filler	90	5	not	4	101.0	NA
39	30	21	F	Filler	90	5	satisfied	5	100.0	NA
39	30	21	F	Filler	90	5	with	6	116.0	NA
39	30	21	F	Filler	90	5	his	7	101.0	NA
39	30	21	F	Filler	90	5	painting	8	114.0	NA
39	30	21	F	Filler	90	5	because	9	102.0	NA
39	30	21	F	Filler	90	5	the	10	166.0	NA
39	30	21	F	Filler	90	5	shading	11	133.0	NA
39	30	21	F	Filler	90	5	was	12	119.0	NA
39	30	21	F	Filler	90	5	off.	13	214.0	NA
39	30	21	F	Question	90	5	NA	NA	4883.0	1
40	30	21	F	Filler	74	5	My	1	1296.0	NA
40	30	21	F	Filler	74	5	former	2	150.0	NA
40	30	21	F	Filler	74	5	girlfriend	3	332.0	NA
40	30	21	F	Filler	74	5	criticized	4	334.0	NA
40	30	21	F	Filler	74	5	the	5	252.0	NA
40	30	21	F	Filler	74	5	author's	6	166.0	NA
40	30	21	F	Filler	74	5	agent	7	150.0	NA
40	30	21	F	Filler	74	5	because	8	218.0	NA
40	30	21	F	Filler	74	5	he	9	250.0	NA
40	30	21	F	Filler	74	5	had	10	517.0	NA
40	30	21	F	Filler	74	5	failed	11	199.0	NA
40	30	21	F	Filler	74	5	to	12	217.0	NA
40	30	21	F	Filler	74	5	meet	13	135.0	NA
40	30	21	F	Filler	74	5	a	14	183.0	NA
40	30	21	F	Filler	74	5	deadline.	15	199.0	NA
40	30	21	F	Question	74	5	NA	NA	3028.0	1
41	30	21	F	swets	15	2	The	1	346.0	NA
41	30	21	F	swets	15	2	husband	2	183.0	NA
41	30	21	F	swets	15	2	of	3	200.0	NA
41	30	21	F	swets	15	2	the	4	184.0	NA
41	30	21	F	swets	15	2	beautician	5	201.0	NA
41	30	21	F	swets	15	2	who	6	232.0	NA
41	30	21	F	swets	15	2	cut	7	217.0	NA
41	30	21	F	swets	15	2	herself	8	153.0	NA
41	30	21	F	swets	15	2	on	9	183.0	NA
41	30	21	F	swets	15	2	the	10	166.0	NA
41	30	21	F	swets	15	2	broken	11	183.0	NA
41	30	21	F	swets	15	2	glass	12	118.0	NA
41	30	21	F	swets	15	2	phoned	13	214.0	NA
41	30	21	F	swets	15	2	for	14	185.0	NA
41	30	21	F	swets	15	2	a	15	200.0	NA
41	30	21	F	swets	15	2	doctor.	16	199.0	NA
41	30	21	F	Question	15	2	NA	NA	1761.0	1
42	30	21	F	Filler	67	4	The	1	246.0	NA
42	30	21	F	Filler	67	4	restaurant	2	99.0	NA
42	30	21	F	Filler	67	4	was	3	183.0	NA
42	30	21	F	Filler	67	4	famous	4	133.0	NA
42	30	21	F	Filler	67	4	for	5	151.0	NA
42	30	21	F	Filler	67	4	its	6	166.0	NA
42	30	21	F	Filler	67	4	French	7	234.0	NA
42	30	21	F	Filler	67	4	pastries	8	301.0	NA
42	30	21	F	Filler	67	4	and	9	149.0	NA
42	30	21	F	Filler	67	4	fine	10	166.0	NA
42	30	21	F	Filler	67	4	wines.	11	199.0	NA
42	30	21	F	Question	67	4	NA	NA	1909.0	1
43	30	21	F	Filler	91	5	The	1	394.0	NA
43	30	21	F	Filler	91	5	workman	2	167.0	NA
43	30	21	F	Filler	91	5	dropped	3	117.0	NA
43	30	21	F	Filler	91	5	the	4	118.0	NA
43	30	21	F	Filler	91	5	assistant	5	299.0	NA
43	30	21	F	Filler	91	5	who	6	285.0	NA
43	30	21	F	Filler	91	5	complained	7	400.0	NA
43	30	21	F	Filler	91	5	bitterly	8	165.0	NA
43	30	21	F	Filler	91	5	onto	9	168.0	NA
43	30	21	F	Filler	91	5	a	10	183.0	NA
43	30	21	F	Filler	91	5	lower	11	267.0	NA
43	30	21	F	Filler	91	5	floor.	12	283.0	NA
43	30	21	F	Question	91	5	NA	NA	2978.0	1
44	30	21	F	Filler	88	5	The	1	347.0	NA
44	30	21	F	Filler	88	5	woman's	2	316.0	NA
44	30	21	F	Filler	88	5	posture	3	201.0	NA
44	30	21	F	Filler	88	5	began	4	149.0	NA
44	30	21	F	Filler	88	5	to	5	166.0	NA
44	30	21	F	Filler	88	5	go	6	168.0	NA
44	30	21	F	Filler	88	5	bad	7	101.0	NA
44	30	21	F	Filler	88	5	because	8	149.0	NA
44	30	21	F	Filler	88	5	of	9	135.0	NA
44	30	21	F	Filler	88	5	her	10	147.0	NA
44	30	21	F	Filler	88	5	constant	11	119.0	NA
44	30	21	F	Filler	88	5	slumping.	12	269.0	NA
44	30	21	F	Question	88	5	NA	NA	1643.0	1
45	30	21	F	swets	24	2	The	1	647.0	NA
45	30	21	F	swets	24	2	daughter	2	167.0	NA
45	30	21	F	swets	24	2	of	3	116.0	NA
45	30	21	F	swets	24	2	the	4	150.0	NA
45	30	21	F	swets	24	2	chaplain	5	168.0	NA
45	30	21	F	swets	24	2	who	6	150.0	NA
45	30	21	F	swets	24	2	drew	7	167.0	NA
45	30	21	F	swets	24	2	attention	8	117.0	NA
45	30	21	F	swets	24	2	to	9	150.0	NA
45	30	21	F	swets	24	2	himself	10	134.0	NA
45	30	21	F	swets	24	2	all	11	167.0	NA
45	30	21	F	swets	24	2	the	12	165.0	NA
45	30	21	F	swets	24	2	time	13	184.0	NA
45	30	21	F	swets	24	2	hated	14	116.0	NA
45	30	21	F	swets	24	2	small	15	368.0	NA
45	30	21	F	swets	24	2	children.	16	416.0	NA
45	30	21	F	Question	24	2	NA	NA	2348.0	1
46	30	21	F	Filler	95	5	The	1	329.0	NA
46	30	21	F	Filler	95	5	receptionist	2	132.0	NA
46	30	21	F	Filler	95	5	of	3	118.0	NA
46	30	21	F	Filler	95	5	the	4	131.0	NA
46	30	21	F	Filler	95	5	company	5	168.0	NA
46	30	21	F	Filler	95	5	went	6	167.0	NA
46	30	21	F	Filler	95	5	home	7	117.0	NA
46	30	21	F	Filler	95	5	sick	8	149.0	NA
46	30	21	F	Filler	95	5	before	9	182.0	NA
46	30	21	F	Filler	95	5	moving	10	135.0	NA
46	30	21	F	Filler	95	5	across	11	169.0	NA
46	30	21	F	Filler	95	5	town.	12	184.0	NA
46	30	21	F	Question	95	5	NA	NA	1742.0	0
47	30	21	F	Filler	119	6	Everybody	1	778.0	NA
47	30	21	F	Filler	119	6	is	2	118.0	NA
47	30	21	F	Filler	119	6	wondering	3	117.0	NA
47	30	21	F	Filler	119	6	which	4	118.0	NA
47	30	21	F	Filler	119	6	software	5	133.0	NA
47	30	21	F	Filler	119	6	Gary	6	134.0	NA
47	30	21	F	Filler	119	6	installed	7	366.0	NA
47	30	21	F	Filler	119	6	without	8	382.0	NA
47	30	21	F	Filler	119	6	buying	9	268.0	NA
47	30	21	F	Filler	119	6	last	10	251.0	NA
47	30	21	F	Filler	119	6	June.	11	332.0	NA
47	30	21	F	Question	119	6	NA	NA	1544.0	1
48	30	21	F	swets	21	2	The	1	343.0	NA
48	30	21	F	swets	21	2	wife	2	136.0	NA
48	30	21	F	swets	21	2	of	3	116.0	NA
48	30	21	F	swets	21	2	the	4	132.0	NA
48	30	21	F	swets	21	2	janitor	5	133.0	NA
48	30	21	F	swets	21	2	who	6	135.0	NA
48	30	21	F	swets	21	2	educated	7	165.0	NA
48	30	21	F	swets	21	2	himself	8	135.0	NA
48	30	21	F	swets	21	2	at	9	149.0	NA
48	30	21	F	swets	21	2	night	10	199.0	NA
48	30	21	F	swets	21	2	loved	11	219.0	NA
48	30	21	F	swets	21	2	going	12	232.0	NA
48	30	21	F	swets	21	2	to	13	282.0	NA
48	30	21	F	swets	21	2	the	14	235.0	NA
48	30	21	F	swets	21	2	theatre.	15	236.0	NA
48	30	21	F	Question	21	2	NA	NA	1692.0	1
49	30	21	F	Filler	42	4	After	1	429.0	NA
49	30	21	F	Filler	42	4	dinner	2	118.0	NA
49	30	21	F	Filler	42	4	the	3	117.0	NA
49	30	21	F	Filler	42	4	children	4	131.0	NA
49	30	21	F	Filler	42	4	gathered	5	100.0	NA
49	30	21	F	Filler	42	4	in	6	120.0	NA
49	30	21	F	Filler	42	4	a	7	133.0	NA
49	30	21	F	Filler	42	4	circle	8	115.0	NA
49	30	21	F	Filler	42	4	to	9	117.0	NA
49	30	21	F	Filler	42	4	listen	10	116.0	NA
49	30	21	F	Filler	42	4	to	11	117.0	NA
49	30	21	F	Filler	42	4	their	12	150.0	NA
49	30	21	F	Filler	42	4	grandmother's	13	218.0	NA
49	30	21	F	Filler	42	4	stories	14	299.0	NA
49	30	21	F	Filler	42	4	about	15	332.0	NA
49	30	21	F	Filler	42	4	the	16	236.0	NA
49	30	21	F	Filler	42	4	good	17	249.0	NA
49	30	21	F	Filler	42	4	old	18	266.0	NA
49	30	21	F	Filler	42	4	days.	19	469.0	NA
49	30	21	F	Question	42	4	NA	NA	1409.0	1
50	30	21	F	Filler	78	5	The	1	495.0	NA
50	30	21	F	Filler	78	5	customer	2	82.0	NA
50	30	21	F	Filler	78	5	complimented	3	369.0	NA
50	30	21	F	Filler	78	5	the	4	1068.0	NA
50	30	21	F	Filler	78	5	store	5	369.0	NA
50	30	21	F	Filler	78	5	keeper	6	383.0	NA
50	30	21	F	Filler	78	5	with	7	299.0	NA
50	30	21	F	Filler	78	5	the	8	116.0	NA
50	30	21	F	Filler	78	5	new	9	134.0	NA
50	30	21	F	Filler	78	5	stock.	10	115.0	NA
50	30	21	F	Question	78	5	NA	NA	1895.0	1
51	30	21	F	swets	14	1	The	1	328.0	NA
51	30	21	F	swets	14	1	mother	2	283.0	NA
51	30	21	F	swets	14	1	of	3	133.0	NA
51	30	21	F	swets	14	1	the	4	116.0	NA
51	30	21	F	swets	14	1	nurse	5	102.0	NA
51	30	21	F	swets	14	1	who	6	183.0	NA
51	30	21	F	swets	14	1	injured	7	184.0	NA
51	30	21	F	swets	14	1	herself	8	467.0	NA
51	30	21	F	swets	14	1	last	9	716.0	NA
51	30	21	F	swets	14	1	summer	10	399.0	NA
51	30	21	F	swets	14	1	had	11	267.0	NA
51	30	21	F	swets	14	1	lived	12	367.0	NA
51	30	21	F	swets	14	1	in	13	252.0	NA
51	30	21	F	swets	14	1	Wales.	14	150.0	NA
51	30	21	F	Question	14	1	NA	NA	2142.0	1
52	30	21	F	Filler	98	5	The	1	3899.0	NA
52	30	21	F	Filler	98	5	husband	2	349.0	NA
52	30	21	F	Filler	98	5	of	3	283.0	NA
52	30	21	F	Filler	98	5	the	4	183.0	NA
52	30	21	F	Filler	98	5	bestselling	5	134.0	NA
52	30	21	F	Filler	98	5	novelist	6	133.0	NA
52	30	21	F	Filler	98	5	was	7	150.0	NA
52	30	21	F	Filler	98	5	into	8	184.0	NA
52	30	21	F	Filler	98	5	collecting	9	251.0	NA
52	30	21	F	Filler	98	5	antiques.	10	202.0	NA
52	30	21	F	Question	98	5	NA	NA	2642.0	1
53	30	21	F	swets	16	3	The	1	929.0	NA
53	30	21	F	swets	16	3	widow	2	550.0	NA
53	30	21	F	swets	16	3	of	3	416.0	NA
53	30	21	F	swets	16	3	the	4	319.0	NA
53	30	21	F	swets	16	3	general	5	265.0	NA
53	30	21	F	swets	16	3	who	6	567.0	NA
53	30	21	F	swets	16	3	sacrificed	7	349.0	NA
53	30	21	F	swets	16	3	herself	8	285.0	NA
53	30	21	F	swets	16	3	for	9	368.0	NA
53	30	21	F	swets	16	3	the	10	282.0	NA
53	30	21	F	swets	16	3	cause	11	268.0	NA
53	30	21	F	swets	16	3	was	12	351.0	NA
53	30	21	F	swets	16	3	the	13	383.0	NA
53	30	21	F	swets	16	3	subject	14	265.0	NA
53	30	21	F	swets	16	3	of	15	219.0	NA
53	30	21	F	swets	16	3	the	16	200.0	NA
53	30	21	F	swets	16	3	biography.	17	134.0	NA
53	30	21	F	Question	16	3	NA	NA	2293.0	0
54	30	21	F	Filler	66	4	The	1	446.0	NA
54	30	21	F	Filler	66	4	rare	2	100.0	NA
54	30	21	F	Filler	66	4	and	3	132.0	NA
54	30	21	F	Filler	66	4	exotic	4	134.0	NA
54	30	21	F	Filler	66	4	monkey	5	101.0	NA
54	30	21	F	Filler	66	4	was	6	132.0	NA
54	30	21	F	Filler	66	4	the	7	117.0	NA
54	30	21	F	Filler	66	4	center	8	150.0	NA
54	30	21	F	Filler	66	4	of	9	169.0	NA
54	30	21	F	Filler	66	4	attention	10	232.0	NA
54	30	21	F	Filler	66	4	at	11	319.0	NA
54	30	21	F	Filler	66	4	the	12	284.0	NA
54	30	21	F	Filler	66	4	zoo.	13	216.0	NA
54	30	21	F	Question	66	4	NA	NA	1411.0	1
55	30	21	F	Filler	137	7	When	1	312.0	NA
55	30	21	F	Filler	137	7	Leslie	2	82.0	NA
55	30	21	F	Filler	137	7	was	3	102.0	NA
55	30	21	F	Filler	137	7	sneezing	4	349.0	NA
55	30	21	F	Filler	137	7	her	5	170.0	NA
55	30	21	F	Filler	137	7	friends	6	115.0	NA
55	30	21	F	Filler	137	7	laughed	7	150.0	NA
55	30	21	F	Filler	137	7	at	8	118.0	NA
55	30	21	F	Filler	137	7	her.	9	132.0	NA
55	30	21	F	Question	137	7	NA	NA	1645.0	1
56	30	21	F	Filler	133	7	While	1	545.0	NA
56	30	21	F	Filler	133	7	the	2	102.0	NA
56	30	21	F	Filler	133	7	lawyers	3	116.0	NA
56	30	21	F	Filler	133	7	fought	4	102.0	NA
56	30	21	F	Filler	133	7	the	5	132.0	NA
56	30	21	F	Filler	133	7	ruling	6	100.0	NA
56	30	21	F	Filler	133	7	the	7	101.0	NA
56	30	21	F	Filler	133	7	judge	8	116.0	NA
56	30	21	F	Filler	133	7	announced	9	134.0	NA
56	30	21	F	Filler	133	7	the	10	115.0	NA
56	30	21	F	Filler	133	7	decision.	11	151.0	NA
56	30	21	F	Question	133	7	NA	NA	5347.0	0
57	30	21	F	Filler	70	4	The	1	379.0	NA
57	30	21	F	Filler	70	4	warden	2	117.0	NA
57	30	21	F	Filler	70	4	was	3	101.0	NA
57	30	21	F	Filler	70	4	dissatisfied	4	150.0	NA
57	30	21	F	Filler	70	4	with	5	100.0	NA
57	30	21	F	Filler	70	4	the	6	133.0	NA
57	30	21	F	Filler	70	4	decision	7	102.0	NA
57	30	21	F	Filler	70	4	of	8	115.0	NA
57	30	21	F	Filler	70	4	the	9	150.0	NA
57	30	21	F	Filler	70	4	parole	10	133.0	NA
57	30	21	F	Filler	70	4	committee	11	151.0	NA
57	30	21	F	Filler	70	4	to	12	217.0	NA
57	30	21	F	Filler	70	4	pardon	13	316.0	NA
57	30	21	F	Filler	70	4	the	14	232.0	NA
57	30	21	F	Filler	70	4	prisoner.	15	234.0	NA
57	30	21	F	Question	70	4	NA	NA	2245.0	1
58	30	21	F	swets	27	2	The	1	1697.0	NA
58	30	21	F	swets	27	2	sister	2	115.0	NA
58	30	21	F	swets	27	2	of	3	151.0	NA
58	30	21	F	swets	27	2	the	4	133.0	NA
58	30	21	F	swets	27	2	butcher	5	133.0	NA
58	30	21	F	swets	27	2	who	6	135.0	NA
58	30	21	F	swets	27	2	invited	7	668.0	NA
58	30	21	F	swets	27	2	himself	8	149.0	NA
58	30	21	F	swets	27	2	to	9	151.0	NA
58	30	21	F	swets	27	2	the	10	201.0	NA
58	30	21	F	swets	27	2	party	11	200.0	NA
58	30	21	F	swets	27	2	enjoyed	12	201.0	NA
58	30	21	F	swets	27	2	it	13	250.0	NA
58	30	21	F	swets	27	2	quite	14	282.0	NA
58	30	21	F	swets	27	2	a	15	285.0	NA
58	30	21	F	swets	27	2	bit.	16	267.0	NA
58	30	21	F	Question	27	2	NA	NA	1500.0	1
59	30	21	F	Filler	102	5	The	1	1929.0	NA
59	30	21	F	Filler	102	5	old	2	150.0	NA
59	30	21	F	Filler	102	5	man	3	133.0	NA
59	30	21	F	Filler	102	5	appeared	4	102.0	NA
59	30	21	F	Filler	102	5	to	5	116.0	NA
59	30	21	F	Filler	102	5	be	6	117.0	NA
59	30	21	F	Filler	102	5	upset	7	100.0	NA
59	30	21	F	Filler	102	5	by	8	116.0	NA
59	30	21	F	Filler	102	5	the	9	120.0	NA
59	30	21	F	Filler	102	5	teenager's	10	134.0	NA
59	30	21	F	Filler	102	5	ignorant	11	130.0	NA
59	30	21	F	Filler	102	5	remark.	12	118.0	NA
59	30	21	F	Question	102	5	NA	NA	4279.0	1
60	30	21	F	swets	17	1	The	1	479.0	NA
60	30	21	F	swets	17	1	grandmother	2	83.0	NA
60	30	21	F	swets	17	1	of	3	84.0	NA
60	30	21	F	swets	17	1	the	4	116.0	NA
60	30	21	F	swets	17	1	heiress	5	100.0	NA
60	30	21	F	swets	17	1	who	6	333.0	NA
60	30	21	F	swets	17	1	bankrupted	7	136.0	NA
60	30	21	F	swets	17	1	herself	8	116.0	NA
60	30	21	F	swets	17	1	last	9	131.0	NA
60	30	21	F	swets	17	1	year	10	102.0	NA
60	30	21	F	swets	17	1	still	11	132.0	NA
60	30	21	F	swets	17	1	made	12	199.0	NA
60	30	21	F	swets	17	1	risky	13	320.0	NA
60	30	21	F	swets	17	1	investments.	14	133.0	NA
60	30	21	F	Question	17	1	NA	NA	4580.0	1
61	30	21	F	Filler	55	4	The	1	362.0	NA
61	30	21	F	Filler	55	4	people	2	99.0	NA
61	30	21	F	Filler	55	4	certainly	3	118.0	NA
61	30	21	F	Filler	55	4	admired	4	98.0	NA
61	30	21	F	Filler	55	4	the	5	118.0	NA
61	30	21	F	Filler	55	4	wife	6	149.0	NA
61	30	21	F	Filler	55	4	of	7	119.0	NA
61	30	21	F	Filler	55	4	the	8	150.0	NA
61	30	21	F	Filler	55	4	janitor	9	134.0	NA
61	30	21	F	Filler	55	4	because	10	150.0	NA
61	30	21	F	Filler	55	4	she	11	132.0	NA
61	30	21	F	Filler	55	4	educated	12	134.0	NA
61	30	21	F	Filler	55	4	herself	13	334.0	NA
61	30	21	F	Filler	55	4	at	14	167.0	NA
61	30	21	F	Filler	55	4	night.	15	134.0	NA
61	30	21	F	Question	55	4	NA	NA	3110.0	0
62	30	21	F	Filler	43	4	The	1	479.0	NA
62	30	21	F	Filler	43	4	movie	2	69.0	NA
62	30	21	F	Filler	43	4	director	3	100.0	NA
62	30	21	F	Filler	43	4	refused	4	133.0	NA
62	30	21	F	Filler	43	4	to	5	84.0	NA
62	30	21	F	Filler	43	4	work	6	315.0	NA
62	30	21	F	Filler	43	4	with	7	151.0	NA
62	30	21	F	Filler	43	4	the	8	367.0	NA
62	30	21	F	Filler	43	4	producer	9	166.0	NA
62	30	21	F	Filler	43	4	again	10	151.0	NA
62	30	21	F	Filler	43	4	after	11	250.0	NA
62	30	21	F	Filler	43	4	winning	12	231.0	NA
62	30	21	F	Filler	43	4	the	13	119.0	NA
62	30	21	F	Filler	43	4	grand	14	265.0	NA
62	30	21	F	Filler	43	4	prize.	15	200.0	NA
62	30	21	F	Question	43	4	NA	NA	1793.0	1
63	30	21	F	Filler	109	6	While	1	328.0	NA
63	30	21	F	Filler	109	6	the	2	400.0	NA
63	30	21	F	Filler	109	6	farmer	3	235.0	NA
63	30	21	F	Filler	109	6	steered	4	264.0	NA
63	30	21	F	Filler	109	6	the	5	318.0	NA
63	30	21	F	Filler	109	6	truck	6	251.0	NA
63	30	21	F	Filler	109	6	the	7	301.0	NA
63	30	21	F	Filler	109	6	tractor	8	200.0	NA
63	30	21	F	Filler	109	6	pulled	9	283.0	NA
63	30	21	F	Filler	109	6	the	10	268.0	NA
63	30	21	F	Filler	109	6	plough.	11	365.0	NA
63	30	21	F	Question	109	6	NA	NA	2228.0	1
64	30	21	F	Filler	53	4	The	1	1896.0	NA
64	30	21	F	Filler	53	4	clay	2	432.0	NA
64	30	21	F	Filler	53	4	pot	3	335.0	NA
64	30	21	F	Filler	53	4	was	4	332.0	NA
64	30	21	F	Filler	53	4	full	5	701.0	NA
64	30	21	F	Filler	53	4	of	6	652.0	NA
64	30	21	F	Filler	53	4	gold	7	284.0	NA
64	30	21	F	Filler	53	4	coins	8	332.0	NA
64	30	21	F	Filler	53	4	and	9	218.0	NA
64	30	21	F	Filler	53	4	the	10	251.0	NA
64	30	21	F	Filler	53	4	thief	11	217.0	NA
64	30	21	F	Filler	53	4	knew	12	233.0	NA
64	30	21	F	Filler	53	4	he	13	217.0	NA
64	30	21	F	Filler	53	4	had	14	249.0	NA
64	30	21	F	Filler	53	4	finally	15	233.0	NA
64	30	21	F	Filler	53	4	hit	16	267.0	NA
64	30	21	F	Filler	53	4	the	17	234.0	NA
64	30	21	F	Filler	53	4	jackpot.	18	232.0	NA
64	30	21	F	Question	53	4	NA	NA	1547.0	1
65	30	21	F	swets	35	1	The	1	362.0	NA
65	30	21	F	swets	35	1	landlord	2	168.0	NA
65	30	21	F	swets	35	1	of	3	200.0	NA
65	30	21	F	swets	35	1	the	4	149.0	NA
65	30	21	F	swets	35	1	businessman	5	217.0	NA
65	30	21	F	swets	35	1	who	6	250.0	NA
65	30	21	F	swets	35	1	had	7	169.0	NA
65	30	21	F	swets	35	1	locked	8	167.0	NA
65	30	21	F	swets	35	1	himself	9	165.0	NA
65	30	21	F	swets	35	1	in	10	153.0	NA
65	30	21	F	swets	35	1	the	11	165.0	NA
65	30	21	F	swets	35	1	office	12	183.0	NA
65	30	21	F	swets	35	1	received	13	200.0	NA
65	30	21	F	swets	35	1	a	14	167.0	NA
65	30	21	F	swets	35	1	phone	15	182.0	NA
65	30	21	F	swets	35	1	call.	16	216.0	NA
65	30	21	F	Question	35	1	NA	NA	2158.0	1
66	30	21	F	Filler	48	4	The	1	497.0	NA
66	30	21	F	Filler	48	4	police	2	232.0	NA
66	30	21	F	Filler	48	4	arrested	3	249.0	NA
66	30	21	F	Filler	48	4	the	4	219.0	NA
66	30	21	F	Filler	48	4	sister	5	184.0	NA
66	30	21	F	Filler	48	4	of	6	215.0	NA
66	30	21	F	Filler	48	4	the	7	217.0	NA
66	30	21	F	Filler	48	4	handyman	8	283.0	NA
66	30	21	F	Filler	48	4	after	9	232.0	NA
66	30	21	F	Filler	48	4	she	10	421.0	NA
66	30	21	F	Filler	48	4	recently	11	349.0	NA
66	30	21	F	Filler	48	4	gave	12	251.0	NA
66	30	21	F	Filler	48	4	birth	13	281.0	NA
66	30	21	F	Filler	48	4	to	14	251.0	NA
66	30	21	F	Filler	48	4	twins.	15	217.0	NA
66	30	21	F	Question	48	4	NA	NA	3379.0	1
67	30	21	F	swets	3	2	The	1	611.0	NA
67	30	21	F	swets	3	2	secretary	2	334.0	NA
67	30	21	F	swets	3	2	of	3	266.0	NA
67	30	21	F	swets	3	2	the	4	167.0	NA
67	30	21	F	swets	3	2	salesman	5	202.0	NA
67	30	21	F	swets	3	2	who	6	199.0	NA
67	30	21	F	swets	3	2	amused	7	233.0	NA
67	30	21	F	swets	3	2	himself	8	200.0	NA
67	30	21	F	swets	3	2	quite	9	202.0	NA
67	30	21	F	swets	3	2	a	10	200.0	NA
67	30	21	F	swets	3	2	bit	11	215.0	NA
67	30	21	F	swets	3	2	was	12	186.0	NA
67	30	21	F	swets	3	2	writing	13	200.0	NA
67	30	21	F	swets	3	2	a	14	197.0	NA
67	30	21	F	swets	3	2	letter	15	218.0	NA
67	30	21	F	swets	3	2	to	16	217.0	NA
67	30	21	F	swets	3	2	the	17	199.0	NA
67	30	21	F	swets	3	2	editor.	18	234.0	NA
67	30	21	F	Question	3	2	NA	NA	4628.0	1
68	30	21	F	Filler	100	5	There	1	1281.0	NA
68	30	21	F	Filler	100	5	was	2	184.0	NA
68	30	21	F	Filler	100	5	a	3	200.0	NA
68	30	21	F	Filler	100	5	large	4	183.0	NA
68	30	21	F	Filler	100	5	sale	5	148.0	NA
68	30	21	F	Filler	100	5	on	6	185.0	NA
68	30	21	F	Filler	100	5	stationary	7	217.0	NA
68	30	21	F	Filler	100	5	and	8	151.0	NA
68	30	21	F	Filler	100	5	office	9	217.0	NA
68	30	21	F	Filler	100	5	supplies	10	200.0	NA
68	30	21	F	Filler	100	5	at	11	166.0	NA
68	30	21	F	Filler	100	5	the	12	483.0	NA
68	30	21	F	Filler	100	5	student	13	234.0	NA
68	30	21	F	Filler	100	5	bookstore.	14	235.0	NA
68	30	21	F	Question	100	5	NA	NA	3726.0	1
69	30	21	F	Filler	72	4	The	1	314.0	NA
69	30	21	F	Filler	72	4	secretaries	2	233.0	NA
69	30	21	F	Filler	72	4	couldn't	3	251.0	NA
69	30	21	F	Filler	72	4	break	4	183.0	NA
69	30	21	F	Filler	72	4	away	5	116.0	NA
69	30	21	F	Filler	72	4	from	6	200.0	NA
69	30	21	F	Filler	72	4	their	7	218.0	NA
69	30	21	F	Filler	72	4	habit	8	167.0	NA
69	30	21	F	Filler	72	4	of	9	232.0	NA
69	30	21	F	Filler	72	4	coffee	10	135.0	NA
69	30	21	F	Filler	72	4	and	11	132.0	NA
69	30	21	F	Filler	72	4	cigarettes	12	184.0	NA
69	30	21	F	Filler	72	4	during	13	299.0	NA
69	30	21	F	Filler	72	4	their	14	252.0	NA
69	30	21	F	Filler	72	4	breaks.	15	165.0	NA
69	30	21	F	Question	72	4	NA	NA	1645.0	1
70	30	21	F	Filler	59	4	The	1	296.0	NA
70	30	21	F	Filler	59	4	conductor	2	118.0	NA
70	30	21	F	Filler	59	4	of	3	150.0	NA
70	30	21	F	Filler	59	4	the	4	133.0	NA
70	30	21	F	Filler	59	4	orchestra	5	116.0	NA
70	30	21	F	Filler	59	4	with	6	118.0	NA
70	30	21	F	Filler	59	4	the	7	132.0	NA
70	30	21	F	Filler	59	4	bald	8	116.0	NA
70	30	21	F	Filler	59	4	head	9	117.0	NA
70	30	21	F	Filler	59	4	plays	10	132.0	NA
70	30	21	F	Filler	59	4	excellently.	11	119.0	NA
70	30	21	F	Question	59	4	NA	NA	1509.0	1
71	30	21	F	swets	28	3	The	1	278.0	NA
71	30	21	F	swets	28	3	nephew	2	233.0	NA
71	30	21	F	swets	28	3	of	3	235.0	NA
71	30	21	F	swets	28	3	the	4	217.0	NA
71	30	21	F	swets	28	3	baroness	5	265.0	NA
71	30	21	F	swets	28	3	who	6	185.0	NA
71	30	21	F	swets	28	3	admired	7	151.0	NA
71	30	21	F	swets	28	3	himself	8	167.0	NA
71	30	21	F	swets	28	3	an	9	351.0	NA
71	30	21	F	swets	28	3	inordinate	10	317.0	NA
71	30	21	F	swets	28	3	amount	11	198.0	NA
71	30	21	F	swets	28	3	enjoyed	12	201.0	NA
71	30	21	F	swets	28	3	all	13	199.0	NA
71	30	21	F	swets	28	3	the	14	184.0	NA
71	30	21	F	swets	28	3	attention.	15	216.0	NA
71	30	21	F	Question	28	3	NA	NA	2763.0	0
72	30	21	F	Filler	37	4	The	1	964.0	NA
72	30	21	F	Filler	37	4	party	2	299.0	NA
72	30	21	F	Filler	37	4	attracted	3	134.0	NA
72	30	21	F	Filler	37	4	the	4	182.0	NA
72	30	21	F	Filler	37	4	fraternity	5	201.0	NA
72	30	21	F	Filler	37	4	members	6	149.0	NA
72	30	21	F	Filler	37	4	whose	7	171.0	NA
72	30	21	F	Filler	37	4	house	8	150.0	NA
72	30	21	F	Filler	37	4	had	9	149.0	NA
72	30	21	F	Filler	37	4	been	10	181.0	NA
72	30	21	F	Filler	37	4	seized	11	118.0	NA
72	30	21	F	Filler	37	4	by	12	132.0	NA
72	30	21	F	Filler	37	4	drug	13	135.0	NA
72	30	21	F	Filler	37	4	agents.	14	167.0	NA
72	30	21	F	Question	37	4	NA	NA	2395.0	1
73	30	21	F	Filler	84	5	While	1	294.0	NA
73	30	21	F	Filler	84	5	talking	2	133.0	NA
73	30	21	F	Filler	84	5	to	3	101.0	NA
73	30	21	F	Filler	84	5	his	4	134.0	NA
73	30	21	F	Filler	84	5	sister	5	149.0	NA
73	30	21	F	Filler	84	5	the	6	133.0	NA
73	30	21	F	Filler	84	5	bishop	7	117.0	NA
73	30	21	F	Filler	84	5	with	8	134.0	NA
73	30	21	F	Filler	84	5	the	9	133.0	NA
73	30	21	F	Filler	84	5	funny	10	115.0	NA
73	30	21	F	Filler	84	5	eyebrows	11	134.0	NA
73	30	21	F	Filler	84	5	advocated	12	115.0	NA
73	30	21	F	Filler	84	5	strange	13	150.0	NA
73	30	21	F	Filler	84	5	beliefs.	14	133.0	NA
73	30	21	F	Question	84	5	NA	NA	4248.0	1
74	30	21	F	Filler	97	5	The	1	1246.0	NA
74	30	21	F	Filler	97	5	tall	2	215.0	NA
74	30	21	F	Filler	97	5	man	3	133.0	NA
74	30	21	F	Filler	97	5	laughed	4	167.0	NA
74	30	21	F	Filler	97	5	at	5	182.0	NA
74	30	21	F	Filler	97	5	the	6	102.0	NA
74	30	21	F	Filler	97	5	clumsy	7	432.0	NA
74	30	21	F	Filler	97	5	child	8	134.0	NA
74	30	21	F	Filler	97	5	who	9	150.0	NA
74	30	21	F	Filler	97	5	spilled	10	417.0	NA
74	30	21	F	Filler	97	5	the	11	181.0	NA
74	30	21	F	Filler	97	5	milk	12	134.0	NA
74	30	21	F	Filler	97	5	on	13	120.0	NA
74	30	21	F	Filler	97	5	himself.	14	166.0	NA
74	30	21	F	Question	97	5	NA	NA	2945.0	1
75	30	21	F	Filler	89	5	Jim	1	7968.0	NA
75	30	21	F	Filler	89	5	watered	2	519.0	NA
75	30	21	F	Filler	89	5	the	3	299.0	NA
75	30	21	F	Filler	89	5	tropical	4	267.0	NA
75	30	21	F	Filler	89	5	plants	5	300.0	NA
75	30	21	F	Filler	89	5	of	6	636.0	NA
75	30	21	F	Filler	89	5	his	7	181.0	NA
75	30	21	F	Filler	89	5	neighbor	8	184.0	NA
75	30	21	F	Filler	89	5	because	9	218.0	NA
75	30	21	F	Filler	89	5	she	10	150.0	NA
75	30	21	F	Filler	89	5	had	11	200.0	NA
75	30	21	F	Filler	89	5	gone	12	166.0	NA
75	30	21	F	Filler	89	5	out	13	183.0	NA
75	30	21	F	Filler	89	5	of	14	184.0	NA
75	30	21	F	Filler	89	5	town	15	168.0	NA
75	30	21	F	Filler	89	5	for	16	281.0	NA
75	30	21	F	Filler	89	5	a	17	186.0	NA
75	30	21	F	Filler	89	5	few	18	217.0	NA
75	30	21	F	Filler	89	5	days.	19	282.0	NA
75	30	21	F	Question	89	5	NA	NA	1612.0	1
76	30	21	F	Filler	65	4	Even	1	529.0	NA
76	30	21	F	Filler	65	4	though	2	133.0	NA
76	30	21	F	Filler	65	4	the	3	100.0	NA
76	30	21	F	Filler	65	4	goalie	4	133.0	NA
76	30	21	F	Filler	65	4	had	5	117.0	NA
76	30	21	F	Filler	65	4	a	6	101.0	NA
76	30	21	F	Filler	65	4	bad	7	117.0	NA
76	30	21	F	Filler	65	4	cold	8	134.0	NA
76	30	21	F	Filler	65	4	the	9	149.0	NA
76	30	21	F	Filler	65	4	team	10	503.0	NA
76	30	21	F	Filler	65	4	was	11	247.0	NA
76	30	21	F	Filler	65	4	preparing	12	169.0	NA
76	30	21	F	Filler	65	4	for	13	283.0	NA
76	30	21	F	Filler	65	4	the	14	281.0	NA
76	30	21	F	Filler	65	4	tournament.	15	236.0	NA
76	30	21	F	Question	65	4	NA	NA	1774.0	1
77	30	21	F	Filler	124	6	The	1	529.0	NA
77	30	21	F	Filler	124	6	mothers	2	99.0	NA
77	30	21	F	Filler	124	6	and	3	116.0	NA
77	30	21	F	Filler	124	6	teachers	4	134.0	NA
77	30	21	F	Filler	124	6	played	5	149.0	NA
77	30	21	F	Filler	124	6	tennis	6	134.0	NA
77	30	21	F	Filler	124	6	after	7	151.0	NA
77	30	21	F	Filler	124	6	the	8	215.0	NA
77	30	21	F	Filler	124	6	kids	9	202.0	NA
77	30	21	F	Filler	124	6	left.	10	265.0	NA
77	30	21	F	Question	124	6	NA	NA	2130.0	1
78	30	21	F	Filler	113	6	While	1	264.0	NA
78	30	21	F	Filler	113	6	Noah	2	132.0	NA
78	30	21	F	Filler	113	6	was	3	102.0	NA
78	30	21	F	Filler	113	6	waking	4	183.0	NA
78	30	21	F	Filler	113	6	up	5	149.0	NA
78	30	21	F	Filler	113	6	the	6	167.0	NA
78	30	21	F	Filler	113	6	man	7	134.0	NA
78	30	21	F	Filler	113	6	the	8	150.0	NA
78	30	21	F	Filler	113	6	neighbor	9	166.0	NA
78	30	21	F	Filler	113	6	coughed	10	251.0	NA
78	30	21	F	Filler	113	6	loudly.	11	185.0	NA
78	30	21	F	Question	113	6	NA	NA	2845.0	1
79	30	21	F	swets	10	3	The	1	464.0	NA
79	30	21	F	swets	10	3	uncle	2	251.0	NA
79	30	21	F	swets	10	3	of	3	149.0	NA
79	30	21	F	swets	10	3	the	4	133.0	NA
79	30	21	F	swets	10	3	nun	5	100.0	NA
79	30	21	F	swets	10	3	who	6	117.0	NA
79	30	21	F	swets	10	3	lost	7	233.0	NA
79	30	21	F	swets	10	3	himself	8	149.0	NA
79	30	21	F	swets	10	3	in	9	150.0	NA
79	30	21	F	swets	10	3	thought	10	384.0	NA
79	30	21	F	swets	10	3	was	11	1000.0	NA
79	30	21	F	swets	10	3	disturbed	12	569.0	NA
79	30	21	F	swets	10	3	by	13	315.0	NA
79	30	21	F	swets	10	3	the	14	235.0	NA
79	30	21	F	swets	10	3	noise.	15	201.0	NA
79	30	21	F	Question	10	3	NA	NA	3243.0	1
80	30	21	F	Filler	120	6	Sarah	1	1296.0	NA
80	30	21	F	Filler	120	6	won't	2	198.0	NA
80	30	21	F	Filler	120	6	reveal	3	183.0	NA
80	30	21	F	Filler	120	6	which	4	133.0	NA
80	30	21	F	Filler	120	6	race	5	152.0	NA
80	30	21	F	Filler	120	6	she	6	133.0	NA
80	30	21	F	Filler	120	6	won	7	217.0	NA
80	30	21	F	Filler	120	6	without	8	183.0	NA
80	30	21	F	Filler	120	6	entering	9	217.0	NA
80	30	21	F	Filler	120	6	the	10	217.0	NA
80	30	21	F	Filler	120	6	competition	11	202.0	NA
80	30	21	F	Filler	120	6	for	12	299.0	NA
80	30	21	F	Filler	120	6	officially.	13	235.0	NA
80	30	21	F	Question	120	6	NA	NA	1676.0	1
81	30	21	F	swets	34	3	The	1	412.0	NA
81	30	21	F	swets	34	3	waiter	2	132.0	NA
81	30	21	F	swets	34	3	of	3	120.0	NA
81	30	21	F	swets	34	3	the	4	332.0	NA
81	30	21	F	swets	34	3	woman	5	202.0	NA
81	30	21	F	swets	34	3	who	6	183.0	NA
81	30	21	F	swets	34	3	considered	7	151.0	NA
81	30	21	F	swets	34	3	himself	8	165.0	NA
81	30	21	F	swets	34	3	a	9	133.0	NA
81	30	21	F	swets	34	3	natural	10	150.0	NA
81	30	21	F	swets	34	3	beauty	11	433.0	NA
81	30	21	F	swets	34	3	spilled	12	550.0	NA
81	30	21	F	swets	34	3	the	13	418.0	NA
81	30	21	F	swets	34	3	drinks.	14	399.0	NA
81	30	21	F	Question	34	3	NA	NA	13870.0	0
82	30	21	F	Filler	99	5	The	1	1215.0	NA
82	30	21	F	Filler	99	5	daring	2	317.0	NA
82	30	21	F	Filler	99	5	photographer	3	201.0	NA
82	30	21	F	Filler	99	5	captured	4	366.0	NA
82	30	21	F	Filler	99	5	the	5	200.0	NA
82	30	21	F	Filler	99	5	image	6	183.0	NA
82	30	21	F	Filler	99	5	of	7	199.0	NA
82	30	21	F	Filler	99	5	the	8	168.0	NA
82	30	21	F	Filler	99	5	destruction	9	200.0	NA
82	30	21	F	Filler	99	5	as	10	184.0	NA
82	30	21	F	Filler	99	5	it	11	166.0	NA
82	30	21	F	Filler	99	5	devastated	12	200.0	NA
82	30	21	F	Filler	99	5	the	13	182.0	NA
82	30	21	F	Filler	99	5	village.	14	220.0	NA
82	30	21	F	Question	99	5	NA	NA	2274.0	1
83	30	21	F	Filler	82	5	The	1	730.0	NA
83	30	21	F	Filler	82	5	patient's	2	287.0	NA
83	30	21	F	Filler	82	5	seizures	3	264.0	NA
83	30	21	F	Filler	82	5	appeared	4	400.0	NA
83	30	21	F	Filler	82	5	to	5	183.0	NA
83	30	21	F	Filler	82	5	have	6	201.0	NA
83	30	21	F	Filler	82	5	been	7	166.0	NA
83	30	21	F	Filler	82	5	eliminated	8	218.0	NA
83	30	21	F	Filler	82	5	by	9	249.0	NA
83	30	21	F	Filler	82	5	the	10	168.0	NA
83	30	21	F	Filler	82	5	surgery.	11	167.0	NA
83	30	21	F	Question	82	5	NA	NA	1744.0	1
84	30	21	F	Filler	51	4	The	1	512.0	NA
84	30	21	F	Filler	51	4	students	2	101.0	NA
84	30	21	F	Filler	51	4	were	3	250.0	NA
84	30	21	F	Filler	51	4	in	4	116.0	NA
84	30	21	F	Filler	51	4	a	5	117.0	NA
84	30	21	F	Filler	51	4	frenzy	6	100.0	NA
84	30	21	F	Filler	51	4	because	7	132.0	NA
84	30	21	F	Filler	51	4	they	8	118.0	NA
84	30	21	F	Filler	51	4	wanted	9	83.0	NA
84	30	21	F	Filler	51	4	tickets	10	183.0	NA
84	30	21	F	Filler	51	4	for	11	50.0	NA
84	30	21	F	Filler	51	4	the	12	183.0	NA
84	30	21	F	Filler	51	4	game	13	101.0	NA
84	30	21	F	Filler	51	4	tonight.	14	334.0	NA
84	30	21	F	Question	51	4	NA	NA	1342.0	1
85	30	21	F	Filler	117	6	While	1	244.0	NA
85	30	21	F	Filler	117	6	Mike	2	103.0	NA
85	30	21	F	Filler	117	6	coughed	3	132.0	NA
85	30	21	F	Filler	117	6	Janet	4	49.0	NA
85	30	21	F	Filler	117	6	went	5	100.0	NA
85	30	21	F	Filler	117	6	out	6	83.0	NA
85	30	21	F	Filler	117	6	to	7	119.0	NA
85	30	21	F	Filler	117	6	get	8	132.0	NA
85	30	21	F	Filler	117	6	some	9	104.0	NA
85	30	21	F	Filler	117	6	cough	10	131.0	NA
85	30	21	F	Filler	117	6	medicine.	11	117.0	NA
85	30	21	F	Question	117	6	NA	NA	2644.0	1
86	30	21	F	swets	12	2	The	1	348.0	NA
86	30	21	F	swets	12	2	son	2	99.0	NA
86	30	21	F	swets	12	2	of	3	268.0	NA
86	30	21	F	swets	12	2	the	4	97.0	NA
86	30	21	F	swets	12	2	princess	5	102.0	NA
86	30	21	F	swets	12	2	who	6	200.0	NA
86	30	21	F	swets	12	2	scratched	7	182.0	NA
86	30	21	F	swets	12	2	himself	8	450.0	NA
86	30	21	F	swets	12	2	in	9	152.0	NA
86	30	21	F	swets	12	2	public	10	99.0	NA
86	30	21	F	swets	12	2	was	11	183.0	NA
86	30	21	F	swets	12	2	terribly	12	350.0	NA
86	30	21	F	swets	12	2	humiliated.	13	202.0	NA
86	30	21	F	Question	12	2	NA	NA	1609.0	1
87	30	21	F	Filler	140	7	The	1	1113.0	NA
87	30	21	F	Filler	140	7	investigators	2	199.0	NA
87	30	21	F	Filler	140	7	asked	3	100.0	NA
87	30	21	F	Filler	140	7	which	4	133.0	NA
87	30	21	F	Filler	140	7	mansion	5	134.0	NA
87	30	21	F	Filler	140	7	the	6	148.0	NA
87	30	21	F	Filler	140	7	owner	7	167.0	NA
87	30	21	F	Filler	140	7	sold	8	368.0	NA
87	30	21	F	Filler	140	7	and	9	285.0	NA
87	30	21	F	Filler	140	7	didn't	10	200.0	NA
87	30	21	F	Filler	140	7	repair	11	166.0	NA
87	30	21	F	Filler	140	7	ten	12	134.0	NA
87	30	21	F	Filler	140	7	years	13	249.0	NA
87	30	21	F	Filler	140	7	ago.	14	185.0	NA
87	30	21	F	Question	140	7	NA	NA	1492.0	1
88	30	21	F	swets	31	3	The	1	245.0	NA
88	30	21	F	swets	31	3	aunt	2	167.0	NA
88	30	21	F	swets	31	3	of	3	101.0	NA
88	30	21	F	swets	31	3	the	4	98.0	NA
88	30	21	F	swets	31	3	milkman	5	135.0	NA
88	30	21	F	swets	31	3	who	6	81.0	NA
88	30	21	F	swets	31	3	had	7	285.0	NA
88	30	21	F	swets	31	3	to	8	366.0	NA
88	30	21	F	swets	31	3	support	9	217.0	NA
88	30	21	F	swets	31	3	herself	10	333.0	NA
88	30	21	F	swets	31	3	with	11	383.0	NA
88	30	21	F	swets	31	3	a	12	286.0	NA
88	30	21	F	swets	31	3	low	13	382.0	NA
88	30	21	F	swets	31	3	income	14	285.0	NA
88	30	21	F	swets	31	3	liked	15	266.0	NA
88	30	21	F	swets	31	3	to	16	285.0	NA
88	30	21	F	swets	31	3	fish.	17	267.0	NA
88	30	21	F	Question	31	3	NA	NA	5594.0	0
89	30	21	F	Filler	139	7	Laurie	1	4633.0	NA
89	30	21	F	Filler	139	7	asked	2	348.0	NA
89	30	21	F	Filler	139	7	which	3	151.0	NA
89	30	21	F	Filler	139	7	truck	4	233.0	NA
89	30	21	F	Filler	139	7	the	5	168.0	NA
89	30	21	F	Filler	139	7	dealership	6	199.0	NA
89	30	21	F	Filler	139	7	sold	7	316.0	NA
89	30	21	F	Filler	139	7	but	8	237.0	NA
89	30	21	F	Filler	139	7	didn't	9	333.0	NA
89	30	21	F	Filler	139	7	paint	10	351.0	NA
89	30	21	F	Filler	139	7	completely.	11	834.0	NA
89	30	21	F	Question	139	7	NA	NA	2340.0	1
90	30	21	F	swets	33	2	The	1	396.0	NA
90	30	21	F	swets	33	2	maid	2	116.0	NA
90	30	21	F	swets	33	2	of	3	115.0	NA
90	30	21	F	swets	33	2	the	4	102.0	NA
90	30	21	F	swets	33	2	actor	5	99.0	NA
90	30	21	F	swets	33	2	who	6	117.0	NA
90	30	21	F	swets	33	2	did	7	134.0	NA
90	30	21	F	swets	33	2	not	8	182.0	NA
90	30	21	F	swets	33	2	like	9	132.0	NA
90	30	21	F	swets	33	2	himself	10	134.0	NA
90	30	21	F	swets	33	2	very	11	184.0	NA
90	30	21	F	swets	33	2	much	12	184.0	NA
90	30	21	F	swets	33	2	caught	13	149.0	NA
90	30	21	F	swets	33	2	the	14	168.0	NA
90	30	21	F	swets	33	2	armed	15	181.0	NA
90	30	21	F	swets	33	2	robber.	16	185.0	NA
90	30	21	F	Question	33	2	NA	NA	1794.0	1
91	30	21	F	Filler	71	4	The	1	344.0	NA
91	30	21	F	Filler	71	4	elderly	2	84.0	NA
91	30	21	F	Filler	71	4	woman	3	117.0	NA
91	30	21	F	Filler	71	4	locked	4	84.0	NA
91	30	21	F	Filler	71	4	and	5	100.0	NA
91	30	21	F	Filler	71	4	bolted	6	116.0	NA
91	30	21	F	Filler	71	4	her	7	66.0	NA
91	30	21	F	Filler	71	4	door	8	236.0	NA
91	30	21	F	Filler	71	4	every	9	117.0	NA
91	30	21	F	Filler	71	4	night	10	149.0	NA
91	30	21	F	Filler	71	4	after	11	183.0	NA
91	30	21	F	Filler	71	4	the	12	201.0	NA
91	30	21	F	Filler	71	4	robbers	13	167.0	NA
91	30	21	F	Filler	71	4	took	14	165.0	NA
91	30	21	F	Filler	71	4	her	15	234.0	NA
91	30	21	F	Filler	71	4	best	16	218.0	NA
91	30	21	F	Filler	71	4	pearls.	17	166.0	NA
91	30	21	F	Question	71	4	NA	NA	1460.0	1
92	30	21	F	Filler	81	5	The	1	276.0	NA
92	30	21	F	Filler	81	5	stubborn	2	101.0	NA
92	30	21	F	Filler	81	5	old	3	99.0	NA
92	30	21	F	Filler	81	5	man	4	133.0	NA
92	30	21	F	Filler	81	5	criticized	5	68.0	NA
92	30	21	F	Filler	81	5	everything	6	133.0	NA
92	30	21	F	Filler	81	5	that	7	49.0	NA
92	30	21	F	Filler	81	5	the	8	235.0	NA
92	30	21	F	Filler	81	5	young	9	150.0	NA
92	30	21	F	Filler	81	5	student	10	83.0	NA
92	30	21	F	Filler	81	5	did.	11	101.0	NA
92	30	21	F	Question	81	5	NA	NA	2646.0	1
93	30	21	F	swets	13	3	The	1	513.0	NA
93	30	21	F	swets	13	3	great-aunt	2	300.0	NA
93	30	21	F	swets	13	3	of	3	233.0	NA
93	30	21	F	swets	13	3	the	4	199.0	NA
93	30	21	F	swets	13	3	policeman	5	217.0	NA
93	30	21	F	swets	13	3	who	6	300.0	NA
93	30	21	F	swets	13	3	treated	7	218.0	NA
93	30	21	F	swets	13	3	herself	8	300.0	NA
93	30	21	F	swets	13	3	after	9	234.0	NA
93	30	21	F	swets	13	3	the	10	315.0	NA
93	30	21	F	swets	13	3	accident	11	302.0	NA
93	30	21	F	swets	13	3	was	12	250.0	NA
93	30	21	F	swets	13	3	watching	13	182.0	NA
93	30	21	F	swets	13	3	the	14	182.0	NA
93	30	21	F	swets	13	3	news.	15	219.0	NA
93	30	21	F	Question	13	3	NA	NA	5061.0	1
94	30	21	F	Filler	110	6	While	1	4182.0	NA
94	30	21	F	Filler	110	6	the	2	283.0	NA
94	30	21	F	Filler	110	6	lawyer	3	283.0	NA
94	30	21	F	Filler	110	6	was	4	167.0	NA
94	30	21	F	Filler	110	6	reading	5	234.0	NA
94	30	21	F	Filler	110	6	the	6	250.0	NA
94	30	21	F	Filler	110	6	will	7	334.0	NA
94	30	21	F	Filler	110	6	the	8	465.0	NA
94	30	21	F	Filler	110	6	contract	9	199.0	NA
94	30	21	F	Filler	110	6	remained	10	183.0	NA
94	30	21	F	Filler	110	6	on	11	151.0	NA
94	30	21	F	Filler	110	6	the	12	152.0	NA
94	30	21	F	Filler	110	6	desk.	13	151.0	NA
94	30	21	F	Question	110	6	NA	NA	1192.0	1
95	30	21	F	Filler	143	7	The	1	246.0	NA
95	30	21	F	Filler	143	7	lawyer	2	166.0	NA
95	30	21	F	Filler	143	7	and	3	149.0	NA
95	30	21	F	Filler	143	7	defendant	4	151.0	NA
95	30	21	F	Filler	143	7	whispered	5	185.0	NA
95	30	21	F	Filler	143	7	furiously	6	166.0	NA
95	30	21	F	Filler	143	7	during	7	149.0	NA
95	30	21	F	Filler	143	7	the	8	133.0	NA
95	30	21	F	Filler	143	7	recess.	9	133.0	NA
95	30	21	F	Question	143	7	NA	NA	2446.0	1
96	30	21	F	swets	5	1	The	1	329.0	NA
96	30	21	F	swets	5	1	uncle	2	249.0	NA
96	30	21	F	swets	5	1	of	3	185.0	NA
96	30	21	F	swets	5	1	the	4	134.0	NA
96	30	21	F	swets	5	1	bishop	5	115.0	NA
96	30	21	F	swets	5	1	who	6	115.0	NA
96	30	21	F	swets	5	1	injured	7	119.0	NA
96	30	21	F	swets	5	1	himself	8	248.0	NA
96	30	21	F	swets	5	1	last	9	151.0	NA
96	30	21	F	swets	5	1	summer	10	232.0	NA
96	30	21	F	swets	5	1	was	11	185.0	NA
96	30	21	F	swets	5	1	concerned	12	235.0	NA
96	30	21	F	swets	5	1	about	13	416.0	NA
96	30	21	F	swets	5	1	the	14	216.0	NA
96	30	21	F	swets	5	1	infection.	15	368.0	NA
96	30	21	F	Question	5	1	NA	NA	3042.0	0
97	30	21	F	Filler	142	7	The	1	345.0	NA
97	30	21	F	Filler	142	7	cats	2	282.0	NA
97	30	21	F	Filler	142	7	and	3	217.0	NA
97	30	21	F	Filler	142	7	dogs	4	152.0	NA
97	30	21	F	Filler	142	7	glared	5	149.0	NA
97	30	21	F	Filler	142	7	at	6	118.0	NA
97	30	21	F	Filler	142	7	each	7	114.0	NA
97	30	21	F	Filler	142	7	other	8	67.0	NA
97	30	21	F	Filler	142	7	warily.	9	233.0	NA
97	30	21	F	Question	142	7	NA	NA	1664.0	1
98	30	21	F	swets	30	2	The	1	295.0	NA
98	30	21	F	swets	30	2	bodyguard	2	301.0	NA
98	30	21	F	swets	30	2	of	3	85.0	NA
98	30	21	F	swets	30	2	the	4	82.0	NA
98	30	21	F	swets	30	2	baroness	5	100.0	NA
98	30	21	F	swets	30	2	who	6	99.0	NA
98	30	21	F	swets	30	2	prepared	7	102.0	NA
98	30	21	F	swets	30	2	herself	8	132.0	NA
98	30	21	F	swets	30	2	very	9	150.0	NA
98	30	21	F	swets	30	2	thoroughly	10	102.0	NA
98	30	21	F	swets	30	2	came	11	131.0	NA
98	30	21	F	swets	30	2	from	12	137.0	NA
98	30	21	F	swets	30	2	the	13	147.0	NA
98	30	21	F	swets	30	2	south.	14	154.0	NA
98	30	21	F	Question	30	2	NA	NA	2507.0	1
99	30	21	F	Filler	112	6	As	1	280.0	NA
99	30	21	F	Filler	112	6	the	2	118.0	NA
99	30	21	F	Filler	112	6	dog	3	132.0	NA
99	30	21	F	Filler	112	6	was	4	82.0	NA
99	30	21	F	Filler	112	6	calming	5	136.0	NA
99	30	21	F	Filler	112	6	down	6	233.0	NA
99	30	21	F	Filler	112	6	the	7	251.0	NA
99	30	21	F	Filler	112	6	puppy	8	266.0	NA
99	30	21	F	Filler	112	6	slept	9	367.0	NA
99	30	21	F	Filler	112	6	in	10	185.0	NA
99	30	21	F	Filler	112	6	the	11	232.0	NA
99	30	21	F	Filler	112	6	cage.	12	183.0	NA
99	30	21	F	Question	112	6	NA	NA	2930.0	1
100	30	21	F	Filler	135	7	While	1	263.0	NA
100	30	21	F	Filler	135	7	Donna	2	149.0	NA
100	30	21	F	Filler	135	7	and	3	134.0	NA
100	30	21	F	Filler	135	7	Scott	4	34.0	NA
100	30	21	F	Filler	135	7	met	5	166.0	NA
100	30	21	F	Filler	135	7	their	6	299.0	NA
100	30	21	F	Filler	135	7	agent	7	218.0	NA
100	30	21	F	Filler	135	7	some	8	184.0	NA
100	30	21	F	Filler	135	7	friends	9	152.0	NA
100	30	21	F	Filler	135	7	called	10	167.0	NA
100	30	21	F	Filler	135	7	and	11	166.0	NA
100	30	21	F	Filler	135	7	left	12	152.0	NA
100	30	21	F	Filler	135	7	a	13	150.0	NA
100	30	21	F	Filler	135	7	message.	14	166.0	NA
100	30	21	F	Question	135	7	NA	NA	3445.0	1
101	30	21	F	swets	4	3	The	1	379.0	NA
101	30	21	F	swets	4	3	father	2	166.0	NA
101	30	21	F	swets	4	3	of	3	117.0	NA
101	30	21	F	swets	4	3	the	4	116.0	NA
101	30	21	F	swets	4	3	bride	5	103.0	NA
101	30	21	F	swets	4	3	who	6	134.0	NA
101	30	21	F	swets	4	3	embarrassed	7	199.0	NA
101	30	21	F	swets	4	3	himself	8	183.0	NA
101	30	21	F	swets	4	3	at	9	117.0	NA
101	30	21	F	swets	4	3	the	10	150.0	NA
101	30	21	F	swets	4	3	reception	11	150.0	NA
101	30	21	F	swets	4	3	was	12	149.0	NA
101	30	21	F	swets	4	3	complaining	13	170.0	NA
101	30	21	F	swets	4	3	to	14	165.0	NA
101	30	21	F	swets	4	3	the	15	316.0	NA
101	30	21	F	swets	4	3	priest.	16	200.0	NA
101	30	21	F	Question	4	3	NA	NA	4995.0	0
102	30	21	F	Filler	85	5	The	1	415.0	NA
102	30	21	F	Filler	85	5	college	2	249.0	NA
102	30	21	F	Filler	85	5	students	3	134.0	NA
102	30	21	F	Filler	85	5	were	4	81.0	NA
102	30	21	F	Filler	85	5	upset	5	102.0	NA
102	30	21	F	Filler	85	5	that	6	99.0	NA
102	30	21	F	Filler	85	5	they	7	51.0	NA
102	30	21	F	Filler	85	5	had	8	83.0	NA
102	30	21	F	Filler	85	5	an	9	98.0	NA
102	30	21	F	Filler	85	5	exam	10	102.0	NA
102	30	21	F	Filler	85	5	the	11	83.0	NA
102	30	21	F	Filler	85	5	next	12	217.0	NA
102	30	21	F	Filler	85	5	day.	13	150.0	NA
102	30	21	F	Question	85	5	NA	NA	1543.0	1
103	30	21	F	Filler	52	4	The	1	593.0	NA
103	30	21	F	Filler	52	4	students	2	103.0	NA
103	30	21	F	Filler	52	4	were	3	97.0	NA
103	30	21	F	Filler	52	4	bored	4	85.0	NA
103	30	21	F	Filler	52	4	by	5	133.0	NA
103	30	21	F	Filler	52	4	the	6	102.0	NA
103	30	21	F	Filler	52	4	teacher.	7	98.0	NA
103	30	21	F	Question	52	4	NA	NA	1796.0	1
104	30	21	F	swets	20	1	The	1	4564.0	NA
104	30	21	F	swets	20	1	brother	2	151.0	NA
104	30	21	F	swets	20	1	of	3	66.0	NA
104	30	21	F	swets	20	1	the	4	86.0	NA
104	30	21	F	swets	20	1	count	5	99.0	NA
104	30	21	F	swets	20	1	who	6	81.0	NA
104	30	21	F	swets	20	1	crippled	7	152.0	NA
104	30	21	F	swets	20	1	himself	8	33.0	NA
104	30	21	F	swets	20	1	by	9	268.0	NA
104	30	21	F	swets	20	1	falling	10	149.0	NA
104	30	21	F	swets	20	1	off	11	233.0	NA
104	30	21	F	swets	20	1	a	12	168.0	NA
104	30	21	F	swets	20	1	horse	13	150.0	NA
104	30	21	F	swets	20	1	took	14	299.0	NA
104	30	21	F	swets	20	1	a	15	150.0	NA
104	30	21	F	swets	20	1	long	16	181.0	NA
104	30	21	F	swets	20	1	time	17	186.0	NA
104	30	21	F	swets	20	1	to	18	218.0	NA
104	30	21	F	swets	20	1	get	19	149.0	NA
104	30	21	F	swets	20	1	over	20	152.0	NA
104	30	21	F	swets	20	1	it.	21	283.0	NA
104	30	21	F	Question	20	1	NA	NA	2806.0	1
105	30	21	F	Filler	116	6	As	1	677.0	NA
105	30	21	F	Filler	116	6	the	2	318.0	NA
105	30	21	F	Filler	116	6	survivors	3	133.0	NA
105	30	21	F	Filler	116	6	were	4	151.0	NA
105	30	21	F	Filler	116	6	embracing	5	134.0	NA
105	30	21	F	Filler	116	6	the	6	198.0	NA
105	30	21	F	Filler	116	6	firefighter	7	235.0	NA
105	30	21	F	Filler	116	6	coughed	8	199.0	NA
105	30	21	F	Filler	116	6	violently.	9	134.0	NA
105	30	21	F	Question	116	6	NA	NA	1497.0	1
106	30	21	F	Filler	122	6	They	1	546.0	NA
106	30	21	F	Filler	122	6	don't	2	333.0	NA
106	30	21	F	Filler	122	6	know	3	200.0	NA
106	30	21	F	Filler	122	6	which	4	182.0	NA
106	30	21	F	Filler	122	6	family	5	285.0	NA
106	30	21	F	Filler	122	6	the	6	132.0	NA
106	30	21	F	Filler	122	6	hijackers	7	101.0	NA
106	30	21	F	Filler	122	6	held	8	317.0	NA
106	30	21	F	Filler	122	6	hostage	9	232.0	NA
106	30	21	F	Filler	122	6	but	10	334.0	NA
106	30	21	F	Filler	122	6	didn't	11	301.0	NA
106	30	21	F	Filler	122	6	hurt	12	316.0	NA
106	30	21	F	Filler	122	6	the	13	216.0	NA
106	30	21	F	Filler	122	6	children	14	233.0	NA
106	30	21	F	Filler	122	6	of	15	302.0	NA
106	30	21	F	Filler	122	6	too	16	200.0	NA
106	30	21	F	Filler	122	6	much.	17	368.0	NA
106	30	21	F	Question	122	6	NA	NA	2193.0	1
107	30	21	F	Filler	94	5	After	1	262.0	NA
107	30	21	F	Filler	94	5	months	2	85.0	NA
107	30	21	F	Filler	94	5	of	3	100.0	NA
107	30	21	F	Filler	94	5	preparation	4	166.0	NA
107	30	21	F	Filler	94	5	the	5	68.0	NA
107	30	21	F	Filler	94	5	ballerina	6	134.0	NA
107	30	21	F	Filler	94	5	was	7	116.0	NA
107	30	21	F	Filler	94	5	getting	8	134.0	NA
107	30	21	F	Filler	94	5	ready	9	98.0	NA
107	30	21	F	Filler	94	5	for	10	100.0	NA
107	30	21	F	Filler	94	5	opening	11	167.0	NA
107	30	21	F	Filler	94	5	night.	12	135.0	NA
107	30	21	F	Question	94	5	NA	NA	3712.0	0
108	30	21	F	Filler	92	5	The	1	630.0	NA
108	30	21	F	Filler	92	5	personal	2	268.0	NA
108	30	21	F	Filler	92	5	trainer	3	167.0	NA
108	30	21	F	Filler	92	5	was	4	332.0	NA
108	30	21	F	Filler	92	5	popular	5	1136.0	NA
108	30	21	F	Filler	92	5	among	6	148.0	NA
108	30	21	F	Filler	92	5	athletes	7	99.0	NA
108	30	21	F	Filler	92	5	after	8	101.0	NA
108	30	21	F	Filler	92	5	he	9	118.0	NA
108	30	21	F	Filler	92	5	helped	10	116.0	NA
108	30	21	F	Filler	92	5	the	11	116.0	NA
108	30	21	F	Filler	92	5	bodybuilder	12	35.0	NA
108	30	21	F	Filler	92	5	win	13	483.0	NA
108	30	21	F	Filler	92	5	the	14	233.0	NA
108	30	21	F	Filler	92	5	competition.	15	169.0	NA
108	30	21	F	Question	92	5	NA	NA	1891.0	0
109	30	21	F	Filler	115	6	As	1	578.0	NA
109	30	21	F	Filler	115	6	Elaine	2	135.0	NA
109	30	21	F	Filler	115	6	and	3	82.0	NA
109	30	21	F	Filler	115	6	Robert	4	136.0	NA
109	30	21	F	Filler	115	6	fought	5	134.0	NA
109	30	21	F	Filler	115	6	the	6	99.0	NA
109	30	21	F	Filler	115	6	mosquitoes	7	134.0	NA
109	30	21	F	Filler	115	6	whined	8	82.0	NA
109	30	21	F	Filler	115	6	annoyingly.	9	200.0	NA
109	30	21	F	Question	115	6	NA	NA	5400.0	1
110	30	21	F	Filler	106	5	On	1	330.0	NA
110	30	21	F	Filler	106	5	the	2	133.0	NA
110	30	21	F	Filler	106	5	last	3	81.0	NA
110	30	21	F	Filler	106	5	night	4	134.0	NA
110	30	21	F	Filler	106	5	of	5	67.0	NA
110	30	21	F	Filler	106	5	summer	6	200.0	NA
110	30	21	F	Filler	106	5	camp	7	50.0	NA
110	30	21	F	Filler	106	5	the	8	168.0	NA
110	30	21	F	Filler	106	5	counselors	9	268.0	NA
110	30	21	F	Filler	106	5	let	10	314.0	NA
110	30	21	F	Filler	106	5	the	11	253.0	NA
110	30	21	F	Filler	106	5	children	12	149.0	NA
110	30	21	F	Filler	106	5	stay	13	166.0	NA
110	30	21	F	Filler	106	5	up	14	151.0	NA
110	30	21	F	Filler	106	5	until	15	184.0	NA
110	30	21	F	Filler	106	5	midnight.	16	199.0	NA
110	30	21	F	Question	106	5	NA	NA	1444.0	1
111	30	21	F	swets	23	1	The	1	263.0	NA
111	30	21	F	swets	23	1	mother	2	115.0	NA
111	30	21	F	swets	23	1	of	3	118.0	NA
111	30	21	F	swets	23	1	the	4	117.0	NA
111	30	21	F	swets	23	1	ballerina	5	133.0	NA
111	30	21	F	swets	23	1	who	6	115.0	NA
111	30	21	F	swets	23	1	found	7	119.0	NA
111	30	21	F	swets	23	1	herself	8	130.0	NA
111	30	21	F	swets	23	1	in	9	135.0	NA
111	30	21	F	swets	23	1	a	10	84.0	NA
111	30	21	F	swets	23	1	lot	11	132.0	NA
111	30	21	F	swets	23	1	of	12	133.0	NA
111	30	21	F	swets	23	1	trouble	13	135.0	NA
111	30	21	F	swets	23	1	phoned	14	166.0	NA
111	30	21	F	swets	23	1	the	15	150.0	NA
111	30	21	F	swets	23	1	police.	16	168.0	NA
111	30	21	F	Question	23	1	NA	NA	3610.0	1
112	30	21	F	Filler	138	7	While	1	313.0	NA
112	30	21	F	Filler	138	7	Pedro	2	84.0	NA
112	30	21	F	Filler	138	7	was	3	85.0	NA
112	30	21	F	Filler	138	7	swimming	4	166.0	NA
112	30	21	F	Filler	138	7	the	5	84.0	NA
112	30	21	F	Filler	138	7	lifeguard	6	134.0	NA
112	30	21	F	Filler	138	7	sat	7	114.0	NA
112	30	21	F	Filler	138	7	in	8	133.0	NA
112	30	21	F	Filler	138	7	his	9	102.0	NA
112	30	21	F	Filler	138	7	chair.	10	99.0	NA
112	30	21	F	Question	138	7	NA	NA	2777.0	1
113	30	21	F	Filler	64	4	Because	1	361.0	NA
113	30	21	F	Filler	64	4	a	2	116.0	NA
113	30	21	F	Filler	64	4	fire	3	119.0	NA
113	30	21	F	Filler	64	4	alarm	4	115.0	NA
113	30	21	F	Filler	64	4	interrupted	5	168.0	NA
113	30	21	F	Filler	64	4	the	6	350.0	NA
113	30	21	F	Filler	64	4	exam	7	284.0	NA
113	30	21	F	Filler	64	4	the	8	150.0	NA
113	30	21	F	Filler	64	4	scores	9	150.0	NA
113	30	21	F	Filler	64	4	were	10	267.0	NA
113	30	21	F	Filler	64	4	disqualified.	11	199.0	NA
113	30	21	F	Question	64	4	NA	NA	1630.0	1
114	30	21	F	Filler	56	4	The	1	278.0	NA
114	30	21	F	Filler	56	4	actor	2	252.0	NA
114	30	21	F	Filler	56	4	said	3	167.0	NA
114	30	21	F	Filler	56	4	the	4	149.0	NA
114	30	21	F	Filler	56	4	audiences	5	202.0	NA
114	30	21	F	Filler	56	4	believed	6	200.0	NA
114	30	21	F	Filler	56	4	the	7	133.0	NA
114	30	21	F	Filler	56	4	nasty	8	170.0	NA
114	30	21	F	Filler	56	4	remarks	9	131.0	NA
114	30	21	F	Filler	56	4	made	10	116.0	NA
114	30	21	F	Filler	56	4	by	11	150.0	NA
114	30	21	F	Filler	56	4	the	12	167.0	NA
114	30	21	F	Filler	56	4	film	13	168.0	NA
114	30	21	F	Filler	56	4	critic.	14	167.0	NA
114	30	21	F	Question	56	4	NA	NA	3076.0	0
115	30	21	F	swets	11	1	The	1	247.0	NA
115	30	21	F	swets	11	1	father	2	148.0	NA
115	30	21	F	swets	11	1	of	3	117.0	NA
115	30	21	F	swets	11	1	the	4	100.0	NA
115	30	21	F	swets	11	1	surgeon	5	133.0	NA
115	30	21	F	swets	11	1	who	6	165.0	NA
115	30	21	F	swets	11	1	made	7	136.0	NA
115	30	21	F	swets	11	1	a	8	750.0	NA
115	30	21	F	swets	11	1	fool	9	133.0	NA
115	30	21	F	swets	11	1	of	10	117.0	NA
115	30	21	F	swets	11	1	himself	11	117.0	NA
115	30	21	F	swets	11	1	at	12	117.0	NA
115	30	21	F	swets	11	1	the	13	132.0	NA
115	30	21	F	swets	11	1	party	14	120.0	NA
115	30	21	F	swets	11	1	was	15	130.0	NA
115	30	21	F	swets	11	1	greatly	16	153.0	NA
115	30	21	F	swets	11	1	embarrassed.	17	166.0	NA
115	30	21	F	Question	11	1	NA	NA	2193.0	1
116	30	21	F	Filler	125	6	The	1	662.0	NA
116	30	21	F	Filler	125	6	bosses	2	102.0	NA
116	30	21	F	Filler	125	6	and	3	67.0	NA
116	30	21	F	Filler	125	6	secretaries	4	84.0	NA
116	30	21	F	Filler	125	6	took	5	98.0	NA
116	30	21	F	Filler	125	6	a	6	117.0	NA
116	30	21	F	Filler	125	6	long	7	117.0	NA
116	30	21	F	Filler	125	6	lunch	8	84.0	NA
116	30	21	F	Filler	125	6	together	9	101.0	NA
116	30	21	F	Filler	125	6	every	10	115.0	NA
116	30	21	F	Filler	125	6	Friday.	11	101.0	NA
116	30	21	F	Question	125	6	NA	NA	2093.0	1
117	30	21	F	Filler	57	4	The	1	228.0	NA
117	30	21	F	Filler	57	4	architect	2	100.0	NA
117	30	21	F	Filler	57	4	was	3	117.0	NA
117	30	21	F	Filler	57	4	embarrassed	4	168.0	NA
117	30	21	F	Filler	57	4	by	5	115.0	NA
117	30	21	F	Filler	57	4	the	6	134.0	NA
117	30	21	F	Filler	57	4	memo	7	99.0	NA
117	30	21	F	Filler	57	4	of	8	118.0	NA
117	30	21	F	Filler	57	4	the	9	100.0	NA
117	30	21	F	Filler	57	4	engineer	10	101.0	NA
117	30	21	F	Filler	57	4	because	11	133.0	NA
117	30	21	F	Filler	57	4	it	12	133.0	NA
117	30	21	F	Filler	57	4	said	13	166.0	NA
117	30	21	F	Filler	57	4	that	14	134.0	NA
117	30	21	F	Filler	57	4	his	15	115.0	NA
117	30	21	F	Filler	57	4	building	16	135.0	NA
117	30	21	F	Filler	57	4	would	17	182.0	NA
117	30	21	F	Filler	57	4	collapse.	18	104.0	NA
117	30	21	F	Question	57	4	NA	NA	1507.0	1
118	30	21	F	swets	9	2	The	1	279.0	NA
118	30	21	F	swets	9	2	father	2	100.0	NA
118	30	21	F	swets	9	2	of	3	100.0	NA
118	30	21	F	swets	9	2	the	4	99.0	NA
118	30	21	F	swets	9	2	schoolgirl	5	134.0	NA
118	30	21	F	swets	9	2	who	6	101.0	NA
118	30	21	F	swets	9	2	burned	7	117.0	NA
118	30	21	F	swets	9	2	herself	8	117.0	NA
118	30	21	F	swets	9	2	the	9	117.0	NA
118	30	21	F	swets	9	2	other	10	117.0	NA
118	30	21	F	swets	9	2	day	11	131.0	NA
118	30	21	F	swets	9	2	was	12	118.0	NA
118	30	21	F	swets	9	2	usually	13	133.0	NA
118	30	21	F	swets	9	2	very	14	134.0	NA
118	30	21	F	swets	9	2	careful.	15	133.0	NA
118	30	21	F	Question	9	2	NA	NA	4648.0	1
119	30	21	F	Filler	104	5	Despite	1	2300.0	NA
119	30	21	F	Filler	104	5	the	2	114.0	NA
119	30	21	F	Filler	104	5	relative	3	103.0	NA
119	30	21	F	Filler	104	5	lack	4	115.0	NA
119	30	21	F	Filler	104	5	of	5	117.0	NA
119	30	21	F	Filler	104	5	rain	6	84.0	NA
119	30	21	F	Filler	104	5	the	7	131.0	NA
119	30	21	F	Filler	104	5	farmer	8	151.0	NA
119	30	21	F	Filler	104	5	harvested	9	166.0	NA
119	30	21	F	Filler	104	5	much	10	300.0	NA
119	30	21	F	Filler	104	5	wheat.	11	251.0	NA
119	30	21	F	Question	104	5	NA	NA	3176.0	1
120	30	21	F	swets	6	2	The	1	529.0	NA
120	30	21	F	swets	6	2	hostess	2	132.0	NA
120	30	21	F	swets	6	2	of	3	82.0	NA
120	30	21	F	swets	6	2	the	4	118.0	NA
120	30	21	F	swets	6	2	mayor	5	133.0	NA
120	30	21	F	swets	6	2	who	6	82.0	NA
120	30	21	F	swets	6	2	complimented	7	101.0	NA
120	30	21	F	swets	6	2	himself	8	233.0	NA
120	30	21	F	swets	6	2	constantly	9	201.0	NA
120	30	21	F	swets	6	2	was	10	133.0	NA
120	30	21	F	swets	6	2	bothered	11	153.0	NA
120	30	21	F	swets	6	2	by	12	165.0	NA
120	30	21	F	swets	6	2	the	13	151.0	NA
120	30	21	F	swets	6	2	reporter.	14	167.0	NA
120	30	21	F	Question	6	2	NA	NA	4046.0	1
121	30	21	F	Filler	60	4	The	1	611.0	NA
121	30	21	F	Filler	60	4	newlyweds	2	235.0	NA
121	30	21	F	Filler	60	4	were	3	168.0	NA
121	30	21	F	Filler	60	4	nervous	4	102.0	NA
121	30	21	F	Filler	60	4	about	5	131.0	NA
121	30	21	F	Filler	60	4	their	6	133.0	NA
121	30	21	F	Filler	60	4	new	7	133.0	NA
121	30	21	F	Filler	60	4	life	8	119.0	NA
121	30	21	F	Filler	60	4	together.	9	133.0	NA
121	30	21	F	Question	60	4	NA	NA	2194.0	1
122	30	21	F	Filler	144	7	The	1	30.0	NA
122	30	21	F	Filler	144	7	apple	2	348.0	NA
122	30	21	F	Filler	144	7	and	3	399.0	NA
122	30	21	F	Filler	144	7	potato	4	200.0	NA
122	30	21	F	Filler	144	7	went	5	149.0	NA
122	30	21	F	Filler	144	7	rotten	6	119.0	NA
122	30	21	F	Filler	144	7	after	7	132.0	NA
122	30	21	F	Filler	144	7	a	8	135.0	NA
122	30	21	F	Filler	144	7	week.	9	132.0	NA
122	30	21	F	Question	144	7	NA	NA	4047.0	1
123	30	21	F	Filler	69	4	The	1	279.0	NA
123	30	21	F	Filler	69	4	tiny	2	168.0	NA
123	30	21	F	Filler	69	4	child	3	115.0	NA
123	30	21	F	Filler	69	4	rolled	4	99.0	NA
123	30	21	F	Filler	69	4	the	5	117.0	NA
123	30	21	F	Filler	69	4	piece	6	134.0	NA
123	30	21	F	Filler	69	4	of	7	102.0	NA
123	30	21	F	Filler	69	4	the	8	117.0	NA
123	30	21	F	Filler	69	4	toy	9	117.0	NA
123	30	21	F	Filler	69	4	into	10	100.0	NA
123	30	21	F	Filler	69	4	the	11	99.0	NA
123	30	21	F	Filler	69	4	next	12	118.0	NA
123	30	21	F	Filler	69	4	room	13	133.0	NA
123	30	21	F	Filler	69	4	after	14	165.0	NA
123	30	21	F	Filler	69	4	it	15	150.0	NA
123	30	21	F	Filler	69	4	broke	16	134.0	NA
123	30	21	F	Filler	69	4	off.	17	100.0	NA
123	30	21	F	Question	69	4	NA	NA	1476.0	1
124	30	21	F	Filler	49	4	The	1	278.0	NA
124	30	21	F	Filler	49	4	construction	2	102.0	NA
124	30	21	F	Filler	49	4	worker	3	67.0	NA
124	30	21	F	Filler	49	4	sued	4	100.0	NA
124	30	21	F	Filler	49	4	the	5	83.0	NA
124	30	21	F	Filler	49	4	son	6	100.0	NA
124	30	21	F	Filler	49	4	of	7	82.0	NA
124	30	21	F	Filler	49	4	that	8	115.0	NA
124	30	21	F	Filler	49	4	greedy	9	86.0	NA
124	30	21	F	Filler	49	4	banker.	10	101.0	NA
124	30	21	F	Question	49	4	NA	NA	4777.0	0
125	30	21	F	swets	7	3	The	1	280.0	NA
125	30	21	F	swets	7	3	nephew	2	66.0	NA
125	30	21	F	swets	7	3	of	3	83.0	NA
125	30	21	F	swets	7	3	the	4	99.0	NA
125	30	21	F	swets	7	3	waitress	5	84.0	NA
125	30	21	F	swets	7	3	who	6	86.0	NA
125	30	21	F	swets	7	3	hurt	7	83.0	NA
125	30	21	F	swets	7	3	himself	8	83.0	NA
125	30	21	F	swets	7	3	on	9	83.0	NA
125	30	21	F	swets	7	3	the	10	82.0	NA
125	30	21	F	swets	7	3	bicycle	11	102.0	NA
125	30	21	F	swets	7	3	was	12	82.0	NA
125	30	21	F	swets	7	3	angry	13	84.0	NA
125	30	21	F	swets	7	3	about	14	99.0	NA
125	30	21	F	swets	7	3	the	15	98.0	NA
125	30	21	F	swets	7	3	incident.	16	103.0	NA
125	30	21	F	Question	7	3	NA	NA	5461.0	0
126	30	21	F	Filler	39	4	The	1	280.0	NA
126	30	21	F	Filler	39	4	overweight	2	99.0	NA
126	30	21	F	Filler	39	4	aunt	3	100.0	NA
126	30	21	F	Filler	39	4	decided	4	67.0	NA
126	30	21	F	Filler	39	4	to	5	86.0	NA
126	30	21	F	Filler	39	4	make	6	99.0	NA
126	30	21	F	Filler	39	4	cookies	7	101.0	NA
126	30	21	F	Filler	39	4	and	8	65.0	NA
126	30	21	F	Filler	39	4	cupcakes	9	101.0	NA
126	30	21	F	Filler	39	4	for	10	50.0	NA
126	30	21	F	Filler	39	4	the	11	83.0	NA
126	30	21	F	Filler	39	4	dinner	12	115.0	NA
126	30	21	F	Filler	39	4	party.	13	120.0	NA
126	30	21	F	Question	39	4	NA	NA	1256.0	1
127	30	21	F	Filler	86	5	The	1	279.0	NA
127	30	21	F	Filler	86	5	family's	2	102.0	NA
127	30	21	F	Filler	86	5	television	3	67.0	NA
127	30	21	F	Filler	86	5	stopped	4	67.0	NA
127	30	21	F	Filler	86	5	working	5	67.0	NA
127	30	21	F	Filler	86	5	two	6	97.0	NA
127	30	21	F	Filler	86	5	days	7	87.0	NA
127	30	21	F	Filler	86	5	after	8	97.0	NA
127	30	21	F	Filler	86	5	the	9	84.0	NA
127	30	21	F	Filler	86	5	warranty	10	100.0	NA
127	30	21	F	Filler	86	5	expired.	11	101.0	NA
127	30	21	F	Question	86	5	NA	NA	2093.0	1
128	30	21	F	Filler	77	5	Outside	1	328.0	NA
128	30	21	F	Filler	77	5	the	2	118.0	NA
128	30	21	F	Filler	77	5	courthouse	3	132.0	NA
128	30	21	F	Filler	77	5	the	4	82.0	NA
128	30	21	F	Filler	77	5	committee	5	86.0	NA
128	30	21	F	Filler	77	5	awarded	6	83.0	NA
128	30	21	F	Filler	77	5	a	7	101.0	NA
128	30	21	F	Filler	77	5	lifetime	8	81.0	NA
128	30	21	F	Filler	77	5	achievement	9	102.0	NA
128	30	21	F	Filler	77	5	prize	10	101.0	NA
128	30	21	F	Filler	77	5	to	11	98.0	NA
128	30	21	F	Filler	77	5	the	12	98.0	NA
128	30	21	F	Filler	77	5	creator	13	100.0	NA
128	30	21	F	Filler	77	5	of	14	100.0	NA
128	30	21	F	Filler	77	5	the	15	102.0	NA
128	30	21	F	Filler	77	5	sculpture.	16	133.0	NA
128	30	21	F	Question	77	5	NA	NA	1678.0	1
129	30	21	F	Filler	83	5	The	1	212.0	NA
129	30	21	F	Filler	83	5	passengers	2	102.0	NA
129	30	21	F	Filler	83	5	screamed	3	247.0	NA
129	30	21	F	Filler	83	5	as	4	67.0	NA
129	30	21	F	Filler	83	5	the	5	67.0	NA
129	30	21	F	Filler	83	5	plane	6	117.0	NA
129	30	21	F	Filler	83	5	dipped	7	66.0	NA
129	30	21	F	Filler	83	5	and	8	67.0	NA
129	30	21	F	Filler	83	5	the	9	100.0	NA
129	30	21	F	Filler	83	5	pilots	10	101.0	NA
129	30	21	F	Filler	83	5	said	11	84.0	NA
129	30	21	F	Filler	83	5	their	12	233.0	NA
129	30	21	F	Filler	83	5	prayers	13	101.0	NA
129	30	21	F	Filler	83	5	quietly.	14	102.0	NA
129	30	21	F	Question	83	5	NA	NA	1691.0	1
130	30	21	F	Filler	123	6	The	1	245.0	NA
130	30	21	F	Filler	123	6	student	2	101.0	NA
130	30	21	F	Filler	123	6	and	3	83.0	NA
130	30	21	F	Filler	123	6	professor	4	102.0	NA
130	30	21	F	Filler	123	6	went	5	64.0	NA
130	30	21	F	Filler	123	6	for	6	84.0	NA
130	30	21	F	Filler	123	6	a	7	82.0	NA
130	30	21	F	Filler	123	6	walk	8	68.0	NA
130	30	21	F	Filler	123	6	last	9	85.0	NA
130	30	21	F	Filler	123	6	Tuesday.	10	99.0	NA
130	30	21	F	Question	123	6	NA	NA	1445.0	1
131	30	21	F	Filler	50	4	The	1	295.0	NA
131	30	21	F	Filler	50	4	new	2	284.0	NA
131	30	21	F	Filler	50	4	language	3	100.0	NA
131	30	21	F	Filler	50	4	requirement	4	68.0	NA
131	30	21	F	Filler	50	4	made	5	116.0	NA
131	30	21	F	Filler	50	4	all	6	82.0	NA
131	30	21	F	Filler	50	4	the	7	118.0	NA
131	30	21	F	Filler	50	4	students	8	69.0	NA
131	30	21	F	Filler	50	4	say	9	282.0	NA
131	30	21	F	Filler	50	4	bad	10	100.0	NA
131	30	21	F	Filler	50	4	things	11	67.0	NA
131	30	21	F	Filler	50	4	about	12	99.0	NA
131	30	21	F	Filler	50	4	the	13	99.0	NA
131	30	21	F	Filler	50	4	dean	14	284.0	NA
131	30	21	F	Filler	50	4	of	15	117.0	NA
131	30	21	F	Filler	50	4	the	16	100.0	NA
131	30	21	F	Filler	50	4	college.	17	134.0	NA
131	30	21	F	Question	50	4	NA	NA	1408.0	1
132	30	21	F	Filler	93	5	The	1	247.0	NA
132	30	21	F	Filler	93	5	new	2	50.0	NA
132	30	21	F	Filler	93	5	book	3	116.0	NA
132	30	21	F	Filler	93	5	replaced	4	99.0	NA
132	30	21	F	Filler	93	5	the	5	100.0	NA
132	30	21	F	Filler	93	5	work	6	116.0	NA
132	30	21	F	Filler	93	5	of	7	67.0	NA
132	30	21	F	Filler	93	5	the	8	99.0	NA
132	30	21	F	Filler	93	5	leaders	9	84.0	NA
132	30	21	F	Filler	93	5	in	10	82.0	NA
132	30	21	F	Filler	93	5	the	11	101.0	NA
132	30	21	F	Filler	93	5	field	12	101.0	NA
132	30	21	F	Filler	93	5	of	13	266.0	NA
132	30	21	F	Filler	93	5	physical	14	101.0	NA
132	30	21	F	Filler	93	5	chemistry.	15	100.0	NA
132	30	21	F	Question	93	5	NA	NA	5229.0	1
133	30	21	F	Filler	127	7	While	1	395.0	NA
133	30	21	F	Filler	127	7	Linda	2	68.0	NA
133	30	21	F	Filler	127	7	wrote	3	49.0	NA
133	30	21	F	Filler	127	7	the	4	83.0	NA
133	30	21	F	Filler	127	7	letter	5	68.0	NA
133	30	21	F	Filler	127	7	arrived	6	99.0	NA
133	30	21	F	Filler	127	7	from	7	66.0	NA
133	30	21	F	Filler	127	7	Chicago.	8	69.0	NA
133	30	21	F	Question	127	7	NA	NA	2525.0	0
134	30	21	F	swets	1	3	The	1	279.0	NA
134	30	21	F	swets	1	3	brother	2	168.0	NA
134	30	21	F	swets	1	3	of	3	333.0	NA
134	30	21	F	swets	1	3	the	4	149.0	NA
134	30	21	F	swets	1	3	actress	5	132.0	NA
134	30	21	F	swets	1	3	who	6	118.0	NA
134	30	21	F	swets	1	3	called	7	133.0	NA
134	30	21	F	swets	1	3	attention	8	116.0	NA
134	30	21	F	swets	1	3	to	9	117.0	NA
134	30	21	F	swets	1	3	himself	10	132.0	NA
134	30	21	F	swets	1	3	on	11	133.0	NA
134	30	21	F	swets	1	3	the	12	135.0	NA
134	30	21	F	swets	1	3	balcony	13	167.0	NA
134	30	21	F	swets	1	3	was	14	248.0	NA
134	30	21	F	swets	1	3	under	15	220.0	NA
134	30	21	F	swets	1	3	investigation.	16	167.0	NA
134	30	21	F	Question	1	3	NA	NA	3259.0	0
135	30	21	F	Filler	118	6	As	1	295.0	NA
135	30	21	F	Filler	118	6	the	2	135.0	NA
135	30	21	F	Filler	118	6	dog	3	115.0	NA
135	30	21	F	Filler	118	6	ran	4	134.0	NA
135	30	21	F	Filler	118	6	Wanda	5	116.0	NA
135	30	21	F	Filler	118	6	watched	6	100.0	NA
135	30	21	F	Filler	118	6	from	7	318.0	NA
135	30	21	F	Filler	118	6	the	8	349.0	NA
135	30	21	F	Filler	118	6	window.	9	135.0	NA
135	30	21	F	Question	118	6	NA	NA	1222.0	1
136	30	21	F	Filler	131	7	While	1	279.0	NA
136	30	21	F	Filler	131	7	Jamie	2	68.0	NA
136	30	21	F	Filler	131	7	dried	3	96.0	NA
136	30	21	F	Filler	131	7	off	4	118.0	NA
136	30	21	F	Filler	131	7	the	5	33.0	NA
136	30	21	F	Filler	131	7	table	6	133.0	NA
136	30	21	F	Filler	131	7	his	7	401.0	NA
136	30	21	F	Filler	131	7	sunglasses	8	134.0	NA
136	30	21	F	Filler	131	7	disappeared.	9	334.0	NA
136	30	21	F	Question	131	7	NA	NA	2245.0	0
137	30	21	F	Filler	44	4	The	1	263.0	NA
137	30	21	F	Filler	44	4	solicitor	2	116.0	NA
137	30	21	F	Filler	44	4	wearing	3	135.0	NA
137	30	21	F	Filler	44	4	the	4	99.0	NA
137	30	21	F	Filler	44	4	new	5	183.0	NA
137	30	21	F	Filler	44	4	tuxedo	6	102.0	NA
137	30	21	F	Filler	44	4	bothered	7	167.0	NA
137	30	21	F	Filler	44	4	a	8	233.0	NA
137	30	21	F	Filler	44	4	man	9	250.0	NA
137	30	21	F	Filler	44	4	from	10	267.0	NA
137	30	21	F	Filler	44	4	New	11	251.0	NA
137	30	21	F	Filler	44	4	York.	12	335.0	NA
137	30	21	F	Question	44	4	NA	NA	3259.0	1
138	30	21	F	Filler	134	7	As	1	294.0	NA
138	30	21	F	Filler	134	7	Shawnie	2	134.0	NA
138	30	21	F	Filler	134	7	and	3	82.0	NA
138	30	21	F	Filler	134	7	Nick	4	167.0	NA
138	30	21	F	Filler	134	7	were	5	150.0	NA
138	30	21	F	Filler	134	7	embracing	6	168.0	NA
138	30	21	F	Filler	134	7	the	7	165.0	NA
138	30	21	F	Filler	134	7	doctor	8	165.0	NA
138	30	21	F	Filler	134	7	the	9	236.0	NA
138	30	21	F	Filler	134	7	visitor	10	234.0	NA
138	30	21	F	Filler	134	7	entered	11	183.0	NA
138	30	21	F	Filler	134	7	the	12	517.0	NA
138	30	21	F	Filler	134	7	room.	13	349.0	NA
138	30	21	F	Question	134	7	NA	NA	2346.0	1
139	30	21	F	swets	29	1	The	1	244.0	NA
139	30	21	F	swets	29	1	brother	2	102.0	NA
139	30	21	F	swets	29	1	of	3	82.0	NA
139	30	21	F	swets	29	1	the	4	116.0	NA
139	30	21	F	swets	29	1	colonel	5	85.0	NA
139	30	21	F	swets	29	1	who	6	132.0	NA
139	30	21	F	swets	29	1	enjoyed	7	104.0	NA
139	30	21	F	swets	29	1	himself	8	98.0	NA
139	30	21	F	swets	29	1	a	9	101.0	NA
139	30	21	F	swets	29	1	lot	10	116.0	NA
139	30	21	F	swets	29	1	was	11	100.0	NA
139	30	21	F	swets	29	1	out	12	133.0	NA
139	30	21	F	swets	29	1	on	13	168.0	NA
139	30	21	F	swets	29	1	the	14	82.0	NA
139	30	21	F	swets	29	1	balcony.	15	168.0	NA
139	30	21	F	Question	29	1	NA	NA	1995.0	1
140	30	21	F	Filler	58	4	The	1	243.0	NA
140	30	21	F	Filler	58	4	white	2	86.0	NA
140	30	21	F	Filler	58	4	dog	3	100.0	NA
140	30	21	F	Filler	58	4	bit	4	115.0	NA
140	30	21	F	Filler	58	4	the	5	102.0	NA
140	30	21	F	Filler	58	4	ankle	6	133.0	NA
140	30	21	F	Filler	58	4	of	7	133.0	NA
140	30	21	F	Filler	58	4	the	8	147.0	NA
140	30	21	F	Filler	58	4	child.	9	120.0	NA
140	30	21	F	Question	58	4	NA	NA	1458.0	1
141	30	21	F	Filler	121	6	The	1	295.0	NA
141	30	21	F	Filler	121	6	ecologist	2	136.0	NA
141	30	21	F	Filler	121	6	wondered	3	147.0	NA
141	30	21	F	Filler	121	6	which	4	118.0	NA
141	30	21	F	Filler	121	6	plants	5	134.0	NA
141	30	21	F	Filler	121	6	the	6	131.0	NA
141	30	21	F	Filler	121	6	scientist	7	117.0	NA
141	30	21	F	Filler	121	6	grew	8	150.0	NA
141	30	21	F	Filler	121	6	but	9	100.0	NA
141	30	21	F	Filler	121	6	didn't	10	153.0	NA
141	30	21	F	Filler	121	6	modify	11	150.0	NA
141	30	21	F	Filler	121	6	the	12	116.0	NA
141	30	21	F	Filler	121	6	seeds	13	133.0	NA
141	30	21	F	Filler	121	6	of	14	151.0	NA
141	30	21	F	Filler	121	6	in	15	149.0	NA
141	30	21	F	Filler	121	6	the	16	151.0	NA
141	30	21	F	Filler	121	6	lab.	17	166.0	NA
141	30	21	F	Question	121	6	NA	NA	5395.0	1
142	30	21	F	Filler	80	5	The	1	513.0	NA
142	30	21	F	Filler	80	5	stepfather	2	299.0	NA
142	30	21	F	Filler	80	5	of	3	118.0	NA
142	30	21	F	Filler	80	5	the	4	102.0	NA
142	30	21	F	Filler	80	5	nun	5	99.0	NA
142	30	21	F	Filler	80	5	with	6	67.0	NA
142	30	21	F	Filler	80	5	a	7	83.0	NA
142	30	21	F	Filler	80	5	long	8	68.0	NA
142	30	21	F	Filler	80	5	white	9	82.0	NA
142	30	21	F	Filler	80	5	beard	10	100.0	NA
142	30	21	F	Filler	80	5	became	11	217.0	NA
142	30	21	F	Filler	80	5	very	12	101.0	NA
142	30	21	F	Filler	80	5	ill.	13	116.0	NA
142	30	21	F	Question	80	5	NA	NA	3364.0	1
143	30	21	F	Filler	62	4	After	1	328.0	NA
143	30	21	F	Filler	62	4	much	2	68.0	NA
143	30	21	F	Filler	62	4	deliberation	3	132.0	NA
143	30	21	F	Filler	62	4	the	4	84.0	NA
143	30	21	F	Filler	62	4	jury	5	133.0	NA
143	30	21	F	Filler	62	4	found	6	102.0	NA
143	30	21	F	Filler	62	4	the	7	80.0	NA
143	30	21	F	Filler	62	4	defendant	8	101.0	NA
143	30	21	F	Filler	62	4	not	9	100.0	NA
143	30	21	F	Filler	62	4	guilty.	10	103.0	NA
143	30	21	F	Question	62	4	NA	NA	2795.0	1
