trial	subj	age	gender	stimulustype	item	condition	word	position	rt	correct
0	32	23	F	Filler	133	7	While	1	444.0	NA
0	32	23	F	Filler	133	7	the	2	353.0	NA
0	32	23	F	Filler	133	7	lawyers	3	283.0	NA
0	32	23	F	Filler	133	7	fought	4	284.0	NA
0	32	23	F	Filler	133	7	the	5	650.0	NA
0	32	23	F	Filler	133	7	ruling	6	298.0	NA
0	32	23	F	Filler	133	7	the	7	355.0	NA
0	32	23	F	Filler	133	7	judge	8	265.0	NA
0	32	23	F	Filler	133	7	announced	9	349.0	NA
0	32	23	F	Filler	133	7	the	10	335.0	NA
0	32	23	F	Filler	133	7	decision.	11	381.0	NA
0	32	23	F	Question	133	7	NA	NA	2746.0	0
1	32	23	F	swets	13	2	The	1	379.0	NA
1	32	23	F	swets	13	2	great-aunt	2	416.0	NA
1	32	23	F	swets	13	2	of	3	401.0	NA
1	32	23	F	swets	13	2	the	4	433.0	NA
1	32	23	F	swets	13	2	policeman	5	251.0	NA
1	32	23	F	swets	13	2	who	6	999.0	NA
1	32	23	F	swets	13	2	treated	7	935.0	NA
1	32	23	F	swets	13	2	himself	8	217.0	NA
1	32	23	F	swets	13	2	after	9	749.0	NA
1	32	23	F	swets	13	2	the	10	269.0	NA
1	32	23	F	swets	13	2	accident	11	566.0	NA
1	32	23	F	swets	13	2	was	12	251.0	NA
1	32	23	F	swets	13	2	watching	13	316.0	NA
1	32	23	F	swets	13	2	the	14	1000.0	NA
1	32	23	F	swets	13	2	news.	15	370.0	NA
1	32	23	F	Question	13	2	NA	NA	3443.0	0
2	32	23	F	Filler	91	5	The	1	530.0	NA
2	32	23	F	Filler	91	5	workman	2	399.0	NA
2	32	23	F	Filler	91	5	dropped	3	333.0	NA
2	32	23	F	Filler	91	5	the	4	318.0	NA
2	32	23	F	Filler	91	5	assistant	5	301.0	NA
2	32	23	F	Filler	91	5	who	6	365.0	NA
2	32	23	F	Filler	91	5	complained	7	384.0	NA
2	32	23	F	Filler	91	5	bitterly	8	381.0	NA
2	32	23	F	Filler	91	5	onto	9	320.0	NA
2	32	23	F	Filler	91	5	a	10	333.0	NA
2	32	23	F	Filler	91	5	lower	11	367.0	NA
2	32	23	F	Filler	91	5	floor.	12	282.0	NA
2	32	23	F	Question	91	5	NA	NA	3014.0	1
3	32	23	F	Filler	44	4	The	1	445.0	NA
3	32	23	F	Filler	44	4	solicitor	2	299.0	NA
3	32	23	F	Filler	44	4	wearing	3	350.0	NA
3	32	23	F	Filler	44	4	the	4	319.0	NA
3	32	23	F	Filler	44	4	new	5	382.0	NA
3	32	23	F	Filler	44	4	tuxedo	6	618.0	NA
3	32	23	F	Filler	44	4	bothered	7	433.0	NA
3	32	23	F	Filler	44	4	a	8	434.0	NA
3	32	23	F	Filler	44	4	man	9	333.0	NA
3	32	23	F	Filler	44	4	from	10	601.0	NA
3	32	23	F	Filler	44	4	New	11	319.0	NA
3	32	23	F	Filler	44	4	York.	12	482.0	NA
3	32	23	F	Question	44	4	NA	NA	4647.0	1
4	32	23	F	Filler	102	5	The	1	28.0	NA
4	32	23	F	Filler	102	5	old	2	635.0	NA
4	32	23	F	Filler	102	5	man	3	347.0	NA
4	32	23	F	Filler	102	5	appeared	4	303.0	NA
4	32	23	F	Filler	102	5	to	5	315.0	NA
4	32	23	F	Filler	102	5	be	6	286.0	NA
4	32	23	F	Filler	102	5	upset	7	302.0	NA
4	32	23	F	Filler	102	5	by	8	281.0	NA
4	32	23	F	Filler	102	5	the	9	299.0	NA
4	32	23	F	Filler	102	5	teenager's	10	401.0	NA
4	32	23	F	Filler	102	5	ignorant	11	352.0	NA
4	32	23	F	Filler	102	5	remark.	12	332.0	NA
4	32	23	F	Question	102	5	NA	NA	1443.0	1
5	32	23	F	Filler	70	4	The	1	397.0	NA
5	32	23	F	Filler	70	4	warden	2	333.0	NA
5	32	23	F	Filler	70	4	was	3	383.0	NA
5	32	23	F	Filler	70	4	dissatisfied	4	983.0	NA
5	32	23	F	Filler	70	4	with	5	451.0	NA
5	32	23	F	Filler	70	4	the	6	1150.0	NA
5	32	23	F	Filler	70	4	decision	7	500.0	NA
5	32	23	F	Filler	70	4	of	8	368.0	NA
5	32	23	F	Filler	70	4	the	9	300.0	NA
5	32	23	F	Filler	70	4	parole	10	232.0	NA
5	32	23	F	Filler	70	4	committee	11	434.0	NA
5	32	23	F	Filler	70	4	to	12	252.0	NA
5	32	23	F	Filler	70	4	pardon	13	365.0	NA
5	32	23	F	Filler	70	4	the	14	316.0	NA
5	32	23	F	Filler	70	4	prisoner.	15	770.0	NA
5	32	23	F	Question	70	4	NA	NA	2712.0	1
6	32	23	F	Filler	100	5	There	1	345.0	NA
6	32	23	F	Filler	100	5	was	2	385.0	NA
6	32	23	F	Filler	100	5	a	3	519.0	NA
6	32	23	F	Filler	100	5	large	4	316.0	NA
6	32	23	F	Filler	100	5	sale	5	816.0	NA
6	32	23	F	Filler	100	5	on	6	352.0	NA
6	32	23	F	Filler	100	5	stationary	7	382.0	NA
6	32	23	F	Filler	100	5	and	8	684.0	NA
6	32	23	F	Filler	100	5	office	9	316.0	NA
6	32	23	F	Filler	100	5	supplies	10	300.0	NA
6	32	23	F	Filler	100	5	at	11	1035.0	NA
6	32	23	F	Filler	100	5	the	12	551.0	NA
6	32	23	F	Filler	100	5	student	13	334.0	NA
6	32	23	F	Filler	100	5	bookstore.	14	350.0	NA
6	32	23	F	Question	100	5	NA	NA	1695.0	1
7	32	23	F	swets	32	3	The	1	327.0	NA
7	32	23	F	swets	32	3	nephew	2	86.0	NA
7	32	23	F	swets	32	3	of	3	399.0	NA
7	32	23	F	swets	32	3	the	4	184.0	NA
7	32	23	F	swets	32	3	duchess	5	365.0	NA
7	32	23	F	swets	32	3	who	6	319.0	NA
7	32	23	F	swets	32	3	looked	7	316.0	NA
7	32	23	F	swets	32	3	at	8	232.0	NA
7	32	23	F	swets	32	3	himself	9	269.0	NA
7	32	23	F	swets	32	3	in	10	317.0	NA
7	32	23	F	swets	32	3	the	11	248.0	NA
7	32	23	F	swets	32	3	mirror	12	601.0	NA
7	32	23	F	swets	32	3	wore	13	286.0	NA
7	32	23	F	swets	32	3	a	14	284.0	NA
7	32	23	F	swets	32	3	blue	15	263.0	NA
7	32	23	F	swets	32	3	shirt.	16	302.0	NA
7	32	23	F	Question	32	3	NA	NA	1656.0	1
8	32	23	F	Filler	57	4	The	1	765.0	NA
8	32	23	F	Filler	57	4	architect	2	499.0	NA
8	32	23	F	Filler	57	4	was	3	234.0	NA
8	32	23	F	Filler	57	4	embarrassed	4	433.0	NA
8	32	23	F	Filler	57	4	by	5	1067.0	NA
8	32	23	F	Filler	57	4	the	6	317.0	NA
8	32	23	F	Filler	57	4	memo	7	249.0	NA
8	32	23	F	Filler	57	4	of	8	284.0	NA
8	32	23	F	Filler	57	4	the	9	234.0	NA
8	32	23	F	Filler	57	4	engineer	10	283.0	NA
8	32	23	F	Filler	57	4	because	11	333.0	NA
8	32	23	F	Filler	57	4	it	12	253.0	NA
8	32	23	F	Filler	57	4	said	13	217.0	NA
8	32	23	F	Filler	57	4	that	14	250.0	NA
8	32	23	F	Filler	57	4	his	15	284.0	NA
8	32	23	F	Filler	57	4	building	16	280.0	NA
8	32	23	F	Filler	57	4	would	17	300.0	NA
8	32	23	F	Filler	57	4	collapse.	18	369.0	NA
8	32	23	F	Question	57	4	NA	NA	1041.0	1
9	32	23	F	Filler	130	7	While	1	311.0	NA
9	32	23	F	Filler	130	7	Margo	2	134.0	NA
9	32	23	F	Filler	130	7	bathed	3	816.0	NA
9	32	23	F	Filler	130	7	the	4	352.0	NA
9	32	23	F	Filler	130	7	dog	5	230.0	NA
9	32	23	F	Filler	130	7	barked	6	401.0	NA
9	32	23	F	Filler	130	7	in	7	285.0	NA
9	32	23	F	Filler	130	7	the	8	184.0	NA
9	32	23	F	Filler	130	7	yard.	9	83.0	NA
9	32	23	F	Question	130	7	NA	NA	3145.0	1
10	32	23	F	Filler	55	4	The	1	312.0	NA
10	32	23	F	Filler	55	4	people	2	315.0	NA
10	32	23	F	Filler	55	4	certainly	3	136.0	NA
10	32	23	F	Filler	55	4	admired	4	501.0	NA
10	32	23	F	Filler	55	4	the	5	284.0	NA
10	32	23	F	Filler	55	4	wife	6	266.0	NA
10	32	23	F	Filler	55	4	of	7	348.0	NA
10	32	23	F	Filler	55	4	the	8	283.0	NA
10	32	23	F	Filler	55	4	janitor	9	251.0	NA
10	32	23	F	Filler	55	4	because	10	299.0	NA
10	32	23	F	Filler	55	4	she	11	253.0	NA
10	32	23	F	Filler	55	4	educated	12	300.0	NA
10	32	23	F	Filler	55	4	herself	13	333.0	NA
10	32	23	F	Filler	55	4	at	14	267.0	NA
10	32	23	F	Filler	55	4	night.	15	516.0	NA
10	32	23	F	Question	55	4	NA	NA	1375.0	1
11	32	23	F	Filler	126	6	The	1	331.0	NA
11	32	23	F	Filler	126	6	boxes	2	331.0	NA
11	32	23	F	Filler	126	6	and	3	685.0	NA
11	32	23	F	Filler	126	6	hangers	4	67.0	NA
11	32	23	F	Filler	126	6	had	5	549.0	NA
11	32	23	F	Filler	126	6	been	6	386.0	NA
11	32	23	F	Filler	126	6	stuffed	7	181.0	NA
11	32	23	F	Filler	126	6	in	8	367.0	NA
11	32	23	F	Filler	126	6	the	9	268.0	NA
11	32	23	F	Filler	126	6	closet.	10	149.0	NA
11	32	23	F	Question	126	6	NA	NA	2027.0	1
12	32	23	F	swets	1	2	The	1	346.0	NA
12	32	23	F	swets	1	2	brother	2	482.0	NA
12	32	23	F	swets	1	2	of	3	336.0	NA
12	32	23	F	swets	1	2	the	4	267.0	NA
12	32	23	F	swets	1	2	actress	5	367.0	NA
12	32	23	F	swets	1	2	who	6	200.0	NA
12	32	23	F	swets	1	2	called	7	116.0	NA
12	32	23	F	swets	1	2	attention	8	500.0	NA
12	32	23	F	swets	1	2	to	9	549.0	NA
12	32	23	F	swets	1	2	herself	10	371.0	NA
12	32	23	F	swets	1	2	on	11	115.0	NA
12	32	23	F	swets	1	2	the	12	184.0	NA
12	32	23	F	swets	1	2	balcony	13	665.0	NA
12	32	23	F	swets	1	2	was	14	386.0	NA
12	32	23	F	swets	1	2	under	15	400.0	NA
12	32	23	F	swets	1	2	investigation.	16	501.0	NA
12	32	23	F	Question	1	2	NA	NA	2209.0	1
13	32	23	F	Filler	144	7	The	1	780.0	NA
13	32	23	F	Filler	144	7	apple	2	416.0	NA
13	32	23	F	Filler	144	7	and	3	466.0	NA
13	32	23	F	Filler	144	7	potato	4	302.0	NA
13	32	23	F	Filler	144	7	went	5	150.0	NA
13	32	23	F	Filler	144	7	rotten	6	536.0	NA
13	32	23	F	Filler	144	7	after	7	80.0	NA
13	32	23	F	Filler	144	7	a	8	103.0	NA
13	32	23	F	Filler	144	7	week.	9	266.0	NA
13	32	23	F	Question	144	7	NA	NA	1959.0	1
14	32	23	F	Filler	59	4	The	1	328.0	NA
14	32	23	F	Filler	59	4	conductor	2	20.0	NA
14	32	23	F	Filler	59	4	of	3	851.0	NA
14	32	23	F	Filler	59	4	the	4	116.0	NA
14	32	23	F	Filler	59	4	orchestra	5	434.0	NA
14	32	23	F	Filler	59	4	with	6	51.0	NA
14	32	23	F	Filler	59	4	the	7	434.0	NA
14	32	23	F	Filler	59	4	bald	8	82.0	NA
14	32	23	F	Filler	59	4	head	9	216.0	NA
14	32	23	F	Filler	59	4	plays	10	834.0	NA
14	32	23	F	Filler	59	4	excellently.	11	349.0	NA
14	32	23	F	Question	59	4	NA	NA	1811.0	1
15	32	23	F	swets	25	2	The	1	346.0	NA
15	32	23	F	swets	25	2	grandfather	2	382.0	NA
15	32	23	F	swets	25	2	of	3	385.0	NA
15	32	23	F	swets	25	2	the	4	168.0	NA
15	32	23	F	swets	25	2	stewardess	5	266.0	NA
15	32	23	F	swets	25	2	who	6	820.0	NA
15	32	23	F	swets	25	2	treated	7	417.0	NA
15	32	23	F	swets	25	2	herself	8	465.0	NA
15	32	23	F	swets	25	2	to	9	335.0	NA
15	32	23	F	swets	25	2	an	10	264.0	NA
15	32	23	F	swets	25	2	ice-cream	11	217.0	NA
15	32	23	F	swets	25	2	cone	12	385.0	NA
15	32	23	F	swets	25	2	was	13	381.0	NA
15	32	23	F	swets	25	2	waiting	14	335.0	NA
15	32	23	F	swets	25	2	at	15	417.0	NA
15	32	23	F	swets	25	2	home.	16	219.0	NA
15	32	23	F	Question	25	2	NA	NA	1759.0	0
16	32	23	F	Filler	80	5	The	1	2116.0	NA
16	32	23	F	Filler	80	5	stepfather	2	1532.0	NA
16	32	23	F	Filler	80	5	of	3	467.0	NA
16	32	23	F	Filler	80	5	the	4	383.0	NA
16	32	23	F	Filler	80	5	nun	5	735.0	NA
16	32	23	F	Filler	80	5	with	6	801.0	NA
16	32	23	F	Filler	80	5	a	7	267.0	NA
16	32	23	F	Filler	80	5	long	8	251.0	NA
16	32	23	F	Filler	80	5	white	9	216.0	NA
16	32	23	F	Filler	80	5	beard	10	501.0	NA
16	32	23	F	Filler	80	5	became	11	348.0	NA
16	32	23	F	Filler	80	5	very	12	283.0	NA
16	32	23	F	Filler	80	5	ill.	13	86.0	NA
16	32	23	F	Question	80	5	NA	NA	1139.0	0
17	32	23	F	Filler	129	7	While	1	1077.0	NA
17	32	23	F	Filler	129	7	Scott	2	103.0	NA
17	32	23	F	Filler	129	7	vacuumed	3	632.0	NA
17	32	23	F	Filler	129	7	the	4	385.0	NA
17	32	23	F	Filler	129	7	carpet	5	132.0	NA
17	32	23	F	Filler	129	7	the	6	452.0	NA
17	32	23	F	Filler	129	7	drapes	7	134.0	NA
17	32	23	F	Filler	129	7	flapped	8	66.0	NA
17	32	23	F	Filler	129	7	in	9	934.0	NA
17	32	23	F	Filler	129	7	the	10	367.0	NA
17	32	23	F	Filler	129	7	breeze.	11	234.0	NA
17	32	23	F	Question	129	7	NA	NA	1108.0	0
18	32	23	F	Filler	136	7	While	1	811.0	NA
18	32	23	F	Filler	136	7	Mark	2	719.0	NA
18	32	23	F	Filler	136	7	and	3	602.0	NA
18	32	23	F	Filler	136	7	Jenny	4	1919.0	NA
18	32	23	F	Filler	136	7	were	5	366.0	NA
18	32	23	F	Filler	136	7	cuddling	6	300.0	NA
18	32	23	F	Filler	136	7	the	7	518.0	NA
18	32	23	F	Filler	136	7	older	8	1268.0	NA
18	32	23	F	Filler	136	7	dogs	9	451.0	NA
18	32	23	F	Filler	136	7	the	10	999.0	NA
18	32	23	F	Filler	136	7	puppies	11	336.0	NA
18	32	23	F	Filler	136	7	nipped	12	366.0	NA
18	32	23	F	Filler	136	7	at	13	417.0	NA
18	32	23	F	Filler	136	7	their	14	315.0	NA
18	32	23	F	Filler	136	7	feet.	15	350.0	NA
18	32	23	F	Question	136	7	NA	NA	1845.0	1
19	32	23	F	swets	35	3	The	1	829.0	NA
19	32	23	F	swets	35	3	landlady	2	182.0	NA
19	32	23	F	swets	35	3	of	3	399.0	NA
19	32	23	F	swets	35	3	the	4	203.0	NA
19	32	23	F	swets	35	3	businessman	5	100.0	NA
19	32	23	F	swets	35	3	who	6	351.0	NA
19	32	23	F	swets	35	3	had	7	400.0	NA
19	32	23	F	swets	35	3	locked	8	151.0	NA
19	32	23	F	swets	35	3	herself	9	382.0	NA
19	32	23	F	swets	35	3	in	10	467.0	NA
19	32	23	F	swets	35	3	the	11	415.0	NA
19	32	23	F	swets	35	3	office	12	435.0	NA
19	32	23	F	swets	35	3	received	13	367.0	NA
19	32	23	F	swets	35	3	a	14	483.0	NA
19	32	23	F	swets	35	3	phone	15	387.0	NA
19	32	23	F	swets	35	3	call.	16	350.0	NA
19	32	23	F	Question	35	3	NA	NA	4524.0	0
20	32	23	F	Filler	37	4	The	1	379.0	NA
20	32	23	F	Filler	37	4	party	2	149.0	NA
20	32	23	F	Filler	37	4	attracted	3	318.0	NA
20	32	23	F	Filler	37	4	the	4	185.0	NA
20	32	23	F	Filler	37	4	fraternity	5	365.0	NA
20	32	23	F	Filler	37	4	members	6	232.0	NA
20	32	23	F	Filler	37	4	whose	7	385.0	NA
20	32	23	F	Filler	37	4	house	8	331.0	NA
20	32	23	F	Filler	37	4	had	9	354.0	NA
20	32	23	F	Filler	37	4	been	10	215.0	NA
20	32	23	F	Filler	37	4	seized	11	168.0	NA
20	32	23	F	Filler	37	4	by	12	417.0	NA
20	32	23	F	Filler	37	4	drug	13	300.0	NA
20	32	23	F	Filler	37	4	agents.	14	565.0	NA
20	32	23	F	Question	37	4	NA	NA	2898.0	1
21	32	23	F	Filler	61	4	The	1	346.0	NA
21	32	23	F	Filler	61	4	lemon	2	266.0	NA
21	32	23	F	Filler	61	4	squirted	3	400.0	NA
21	32	23	F	Filler	61	4	into	4	315.0	NA
21	32	23	F	Filler	61	4	the	5	286.0	NA
21	32	23	F	Filler	61	4	debutante's	6	368.0	NA
21	32	23	F	Filler	61	4	eye	7	381.0	NA
21	32	23	F	Filler	61	4	as	8	350.0	NA
21	32	23	F	Filler	61	4	she	9	653.0	NA
21	32	23	F	Filler	61	4	tried	10	199.0	NA
21	32	23	F	Filler	61	4	to	11	349.0	NA
21	32	23	F	Filler	61	4	impress	12	234.0	NA
21	32	23	F	Filler	61	4	her	13	417.0	NA
21	32	23	F	Filler	61	4	mother's	14	466.0	NA
21	32	23	F	Filler	61	4	society	15	787.0	NA
21	32	23	F	Filler	61	4	friends.	16	416.0	NA
21	32	23	F	Question	61	4	NA	NA	1808.0	1
22	32	23	F	Filler	128	7	While	1	447.0	NA
22	32	23	F	Filler	128	7	the	2	619.0	NA
22	32	23	F	Filler	128	7	man	3	266.0	NA
22	32	23	F	Filler	128	7	was	4	1217.0	NA
22	32	23	F	Filler	128	7	walking	5	417.0	NA
22	32	23	F	Filler	128	7	the	6	333.0	NA
22	32	23	F	Filler	128	7	poodle	7	1666.0	NA
22	32	23	F	Filler	128	7	barked	8	353.0	NA
22	32	23	F	Filler	128	7	loudly.	9	368.0	NA
22	32	23	F	Question	128	7	NA	NA	2329.0	0
23	32	23	F	Filler	117	6	While	1	1246.0	NA
23	32	23	F	Filler	117	6	Mike	2	350.0	NA
23	32	23	F	Filler	117	6	coughed	3	449.0	NA
23	32	23	F	Filler	117	6	Janet	4	2737.0	NA
23	32	23	F	Filler	117	6	went	5	468.0	NA
23	32	23	F	Filler	117	6	out	6	383.0	NA
23	32	23	F	Filler	117	6	to	7	352.0	NA
23	32	23	F	Filler	117	6	get	8	614.0	NA
23	32	23	F	Filler	117	6	some	9	8326.0	NA
23	32	23	F	Filler	117	6	cough	10	397.0	NA
23	32	23	F	Filler	117	6	medicine.	11	500.0	NA
23	32	23	F	Question	117	6	NA	NA	1141.0	0
24	32	23	F	Filler	112	6	As	1	162.0	NA
24	32	23	F	Filler	112	6	the	2	402.0	NA
24	32	23	F	Filler	112	6	dog	3	302.0	NA
24	32	23	F	Filler	112	6	was	4	332.0	NA
24	32	23	F	Filler	112	6	calming	5	301.0	NA
24	32	23	F	Filler	112	6	down	6	315.0	NA
24	32	23	F	Filler	112	6	the	7	351.0	NA
24	32	23	F	Filler	112	6	puppy	8	300.0	NA
24	32	23	F	Filler	112	6	slept	9	320.0	NA
24	32	23	F	Filler	112	6	in	10	316.0	NA
24	32	23	F	Filler	112	6	the	11	298.0	NA
24	32	23	F	Filler	112	6	cage.	12	301.0	NA
24	32	23	F	Question	112	6	NA	NA	379.0	0
25	32	23	F	swets	27	1	The	1	212.0	NA
25	32	23	F	swets	27	1	brother	2	82.0	NA
25	32	23	F	swets	27	1	of	3	299.0	NA
25	32	23	F	swets	27	1	the	4	417.0	NA
25	32	23	F	swets	27	1	butcher	5	517.0	NA
25	32	23	F	swets	27	1	who	6	367.0	NA
25	32	23	F	swets	27	1	invited	7	202.0	NA
25	32	23	F	swets	27	1	himself	8	247.0	NA
25	32	23	F	swets	27	1	to	9	220.0	NA
25	32	23	F	swets	27	1	the	10	233.0	NA
25	32	23	F	swets	27	1	party	11	700.0	NA
25	32	23	F	swets	27	1	enjoyed	12	351.0	NA
25	32	23	F	swets	27	1	it	13	350.0	NA
25	32	23	F	swets	27	1	quite	14	302.0	NA
25	32	23	F	swets	27	1	a	15	333.0	NA
25	32	23	F	swets	27	1	bit.	16	349.0	NA
25	32	23	F	Question	27	1	NA	NA	1412.0	1
26	32	23	F	Filler	103	5	The	1	330.0	NA
26	32	23	F	Filler	103	5	desperate	2	364.0	NA
26	32	23	F	Filler	103	5	thief	3	236.0	NA
26	32	23	F	Filler	103	5	ran	4	383.0	NA
26	32	23	F	Filler	103	5	over	5	182.0	NA
26	32	23	F	Filler	103	5	a	6	349.0	NA
26	32	23	F	Filler	103	5	child	7	169.0	NA
26	32	23	F	Filler	103	5	in	8	351.0	NA
26	32	23	F	Filler	103	5	an	9	250.0	NA
26	32	23	F	Filler	103	5	attempt	10	248.0	NA
26	32	23	F	Filler	103	5	to	11	368.0	NA
26	32	23	F	Filler	103	5	dodge	12	218.0	NA
26	32	23	F	Filler	103	5	the	13	268.0	NA
26	32	23	F	Filler	103	5	cops.	14	82.0	NA
26	32	23	F	Question	103	5	NA	NA	1459.0	0
27	32	23	F	Filler	123	6	The	1	294.0	NA
27	32	23	F	Filler	123	6	student	2	384.0	NA
27	32	23	F	Filler	123	6	and	3	152.0	NA
27	32	23	F	Filler	123	6	professor	4	152.0	NA
27	32	23	F	Filler	123	6	went	5	348.0	NA
27	32	23	F	Filler	123	6	for	6	100.0	NA
27	32	23	F	Filler	123	6	a	7	101.0	NA
27	32	23	F	Filler	123	6	walk	8	168.0	NA
27	32	23	F	Filler	123	6	last	9	567.0	NA
27	32	23	F	Filler	123	6	Tuesday.	10	148.0	NA
27	32	23	F	Question	123	6	NA	NA	1606.0	1
28	32	23	F	Filler	65	4	Even	1	363.0	NA
28	32	23	F	Filler	65	4	though	2	934.0	NA
28	32	23	F	Filler	65	4	the	3	50.0	NA
28	32	23	F	Filler	65	4	goalie	4	317.0	NA
28	32	23	F	Filler	65	4	had	5	500.0	NA
28	32	23	F	Filler	65	4	a	6	883.0	NA
28	32	23	F	Filler	65	4	bad	7	301.0	NA
28	32	23	F	Filler	65	4	cold	8	650.0	NA
28	32	23	F	Filler	65	4	the	9	351.0	NA
28	32	23	F	Filler	65	4	team	10	218.0	NA
28	32	23	F	Filler	65	4	was	11	633.0	NA
28	32	23	F	Filler	65	4	preparing	12	367.0	NA
28	32	23	F	Filler	65	4	for	13	266.0	NA
28	32	23	F	Filler	65	4	the	14	334.0	NA
28	32	23	F	Filler	65	4	tournament.	15	734.0	NA
28	32	23	F	Question	65	4	NA	NA	1143.0	1
29	32	23	F	swets	4	2	The	1	547.0	NA
29	32	23	F	swets	4	2	father	2	67.0	NA
29	32	23	F	swets	4	2	of	3	150.0	NA
29	32	23	F	swets	4	2	the	4	32.0	NA
29	32	23	F	swets	4	2	bride	5	400.0	NA
29	32	23	F	swets	4	2	who	6	84.0	NA
29	32	23	F	swets	4	2	embarrassed	7	200.0	NA
29	32	23	F	swets	4	2	herself	8	782.0	NA
29	32	23	F	swets	4	2	at	9	1819.0	NA
29	32	23	F	swets	4	2	the	10	301.0	NA
29	32	23	F	swets	4	2	reception	11	333.0	NA
29	32	23	F	swets	4	2	was	12	251.0	NA
29	32	23	F	swets	4	2	complaining	13	249.0	NA
29	32	23	F	swets	4	2	to	14	283.0	NA
29	32	23	F	swets	4	2	the	15	300.0	NA
29	32	23	F	swets	4	2	priest.	16	417.0	NA
29	32	23	F	Question	4	2	NA	NA	1394.0	1
30	32	23	F	Filler	119	6	Everybody	1	562.0	NA
30	32	23	F	Filler	119	6	is	2	518.0	NA
30	32	23	F	Filler	119	6	wondering	3	383.0	NA
30	32	23	F	Filler	119	6	which	4	116.0	NA
30	32	23	F	Filler	119	6	software	5	1087.0	NA
30	32	23	F	Filler	119	6	Gary	6	248.0	NA
30	32	23	F	Filler	119	6	installed	7	368.0	NA
30	32	23	F	Filler	119	6	without	8	266.0	NA
30	32	23	F	Filler	119	6	buying	9	198.0	NA
30	32	23	F	Filler	119	6	last	10	402.0	NA
30	32	23	F	Filler	119	6	June.	11	499.0	NA
30	32	23	F	Question	119	6	NA	NA	1174.0	0
31	32	23	F	Filler	49	4	The	1	613.0	NA
31	32	23	F	Filler	49	4	construction	2	683.0	NA
31	32	23	F	Filler	49	4	worker	3	397.0	NA
31	32	23	F	Filler	49	4	sued	4	100.0	NA
31	32	23	F	Filler	49	4	the	5	434.0	NA
31	32	23	F	Filler	49	4	son	6	236.0	NA
31	32	23	F	Filler	49	4	of	7	349.0	NA
31	32	23	F	Filler	49	4	that	8	415.0	NA
31	32	23	F	Filler	49	4	greedy	9	220.0	NA
31	32	23	F	Filler	49	4	banker.	10	453.0	NA
31	32	23	F	Question	49	4	NA	NA	2541.0	1
32	32	23	F	Filler	84	5	While	1	348.0	NA
32	32	23	F	Filler	84	5	talking	2	348.0	NA
32	32	23	F	Filler	84	5	to	3	316.0	NA
32	32	23	F	Filler	84	5	his	4	386.0	NA
32	32	23	F	Filler	84	5	sister	5	267.0	NA
32	32	23	F	Filler	84	5	the	6	300.0	NA
32	32	23	F	Filler	84	5	bishop	7	100.0	NA
32	32	23	F	Filler	84	5	with	8	17.0	NA
32	32	23	F	Filler	84	5	the	9	733.0	NA
32	32	23	F	Filler	84	5	funny	10	481.0	NA
32	32	23	F	Filler	84	5	eyebrows	11	302.0	NA
32	32	23	F	Filler	84	5	advocated	12	400.0	NA
32	32	23	F	Filler	84	5	strange	13	336.0	NA
32	32	23	F	Filler	84	5	beliefs.	14	316.0	NA
32	32	23	F	Question	84	5	NA	NA	1893.0	0
33	32	23	F	Filler	107	5	The	1	480.0	NA
33	32	23	F	Filler	107	5	citizens	2	219.0	NA
33	32	23	F	Filler	107	5	were	3	49.0	NA
33	32	23	F	Filler	107	5	dissatisfied	4	183.0	NA
33	32	23	F	Filler	107	5	with	5	334.0	NA
33	32	23	F	Filler	107	5	the	6	351.0	NA
33	32	23	F	Filler	107	5	mayor	7	30.0	NA
33	32	23	F	Filler	107	5	of	8	99.0	NA
33	32	23	F	Filler	107	5	town	9	1520.0	NA
33	32	23	F	Filler	107	5	because	10	216.0	NA
33	32	23	F	Filler	107	5	he	11	117.0	NA
33	32	23	F	Filler	107	5	had	12	201.0	NA
33	32	23	F	Filler	107	5	little	13	196.0	NA
33	32	23	F	Filler	107	5	experience.	14	269.0	NA
33	32	23	F	Question	107	5	NA	NA	911.0	1
34	32	23	F	Filler	69	4	The	1	280.0	NA
34	32	23	F	Filler	69	4	tiny	2	83.0	NA
34	32	23	F	Filler	69	4	child	3	699.0	NA
34	32	23	F	Filler	69	4	rolled	4	69.0	NA
34	32	23	F	Filler	69	4	the	5	17.0	NA
34	32	23	F	Filler	69	4	piece	6	98.0	NA
34	32	23	F	Filler	69	4	of	7	50.0	NA
34	32	23	F	Filler	69	4	the	8	100.0	NA
34	32	23	F	Filler	69	4	toy	9	115.0	NA
34	32	23	F	Filler	69	4	into	10	119.0	NA
34	32	23	F	Filler	69	4	the	11	100.0	NA
34	32	23	F	Filler	69	4	next	12	49.0	NA
34	32	23	F	Filler	69	4	room	13	169.0	NA
34	32	23	F	Filler	69	4	after	14	183.0	NA
34	32	23	F	Filler	69	4	it	15	118.0	NA
34	32	23	F	Filler	69	4	broke	16	148.0	NA
34	32	23	F	Filler	69	4	off.	17	285.0	NA
34	32	23	F	Question	69	4	NA	NA	772.0	1
35	32	23	F	Filler	64	4	Because	1	496.0	NA
35	32	23	F	Filler	64	4	a	2	166.0	NA
35	32	23	F	Filler	64	4	fire	3	103.0	NA
35	32	23	F	Filler	64	4	alarm	4	30.0	NA
35	32	23	F	Filler	64	4	interrupted	5	235.0	NA
35	32	23	F	Filler	64	4	the	6	98.0	NA
35	32	23	F	Filler	64	4	exam	7	334.0	NA
35	32	23	F	Filler	64	4	the	8	83.0	NA
35	32	23	F	Filler	64	4	scores	9	102.0	NA
35	32	23	F	Filler	64	4	were	10	116.0	NA
35	32	23	F	Filler	64	4	disqualified.	11	166.0	NA
35	32	23	F	Question	64	4	NA	NA	978.0	1
36	32	23	F	Filler	63	4	The	1	514.0	NA
36	32	23	F	Filler	63	4	bride	2	200.0	NA
36	32	23	F	Filler	63	4	was	3	368.0	NA
36	32	23	F	Filler	63	4	devastated	4	82.0	NA
36	32	23	F	Filler	63	4	to	5	400.0	NA
36	32	23	F	Filler	63	4	lose	6	84.0	NA
36	32	23	F	Filler	63	4	her	7	116.0	NA
36	32	23	F	Filler	63	4	gold	8	167.0	NA
36	32	23	F	Filler	63	4	ring	9	183.0	NA
36	32	23	F	Filler	63	4	with	10	200.0	NA
36	32	23	F	Filler	63	4	a	11	148.0	NA
36	32	23	F	Filler	63	4	gleaming	12	319.0	NA
36	32	23	F	Filler	63	4	diamond	13	117.0	NA
36	32	23	F	Filler	63	4	in	14	99.0	NA
36	32	23	F	Filler	63	4	the	15	168.0	NA
36	32	23	F	Filler	63	4	middle.	16	350.0	NA
36	32	23	F	Question	63	4	NA	NA	1844.0	1
37	32	23	F	Filler	51	4	The	1	394.0	NA
37	32	23	F	Filler	51	4	students	2	69.0	NA
37	32	23	F	Filler	51	4	were	3	201.0	NA
37	32	23	F	Filler	51	4	in	4	117.0	NA
37	32	23	F	Filler	51	4	a	5	150.0	NA
37	32	23	F	Filler	51	4	frenzy	6	383.0	NA
37	32	23	F	Filler	51	4	because	7	135.0	NA
37	32	23	F	Filler	51	4	they	8	216.0	NA
37	32	23	F	Filler	51	4	wanted	9	167.0	NA
37	32	23	F	Filler	51	4	tickets	10	103.0	NA
37	32	23	F	Filler	51	4	for	11	65.0	NA
37	32	23	F	Filler	51	4	the	12	216.0	NA
37	32	23	F	Filler	51	4	game	13	135.0	NA
37	32	23	F	Filler	51	4	tonight.	14	116.0	NA
37	32	23	F	Question	51	4	NA	NA	1177.0	1
38	32	23	F	Filler	52	4	The	1	347.0	NA
38	32	23	F	Filler	52	4	students	2	118.0	NA
38	32	23	F	Filler	52	4	were	3	100.0	NA
38	32	23	F	Filler	52	4	bored	4	81.0	NA
38	32	23	F	Filler	52	4	by	5	135.0	NA
38	32	23	F	Filler	52	4	the	6	67.0	NA
38	32	23	F	Filler	52	4	teacher.	7	180.0	NA
38	32	23	F	Question	52	4	NA	NA	959.0	1
39	32	23	F	Filler	81	5	The	1	331.0	NA
39	32	23	F	Filler	81	5	stubborn	2	33.0	NA
39	32	23	F	Filler	81	5	old	3	50.0	NA
39	32	23	F	Filler	81	5	man	4	82.0	NA
39	32	23	F	Filler	81	5	criticized	5	270.0	NA
39	32	23	F	Filler	81	5	everything	6	133.0	NA
39	32	23	F	Filler	81	5	that	7	348.0	NA
39	32	23	F	Filler	81	5	the	8	116.0	NA
39	32	23	F	Filler	81	5	young	9	52.0	NA
39	32	23	F	Filler	81	5	student	10	81.0	NA
39	32	23	F	Filler	81	5	did.	11	217.0	NA
39	32	23	F	Question	81	5	NA	NA	1462.0	1
40	32	23	F	swets	12	1	The	1	316.0	NA
40	32	23	F	swets	12	1	maid	2	83.0	NA
40	32	23	F	swets	12	1	of	3	34.0	NA
40	32	23	F	swets	12	1	the	4	197.0	NA
40	32	23	F	swets	12	1	princess	5	84.0	NA
40	32	23	F	swets	12	1	who	6	351.0	NA
40	32	23	F	swets	12	1	scratched	7	198.0	NA
40	32	23	F	swets	12	1	herself	8	136.0	NA
40	32	23	F	swets	12	1	in	9	432.0	NA
40	32	23	F	swets	12	1	public	10	383.0	NA
40	32	23	F	swets	12	1	was	11	300.0	NA
40	32	23	F	swets	12	1	terribly	12	168.0	NA
40	32	23	F	swets	12	1	humiliated.	13	384.0	NA
40	32	23	F	Question	12	1	NA	NA	1544.0	0
41	32	23	F	Filler	68	4	The	1	346.0	NA
41	32	23	F	Filler	68	4	scientist	2	330.0	NA
41	32	23	F	Filler	68	4	published	3	135.0	NA
41	32	23	F	Filler	68	4	a	4	116.0	NA
41	32	23	F	Filler	68	4	paper	5	283.0	NA
41	32	23	F	Filler	68	4	in	6	119.0	NA
41	32	23	F	Filler	68	4	the	7	103.0	NA
41	32	23	F	Filler	68	4	journal	8	147.0	NA
41	32	23	F	Filler	68	4	of	9	166.0	NA
41	32	23	F	Filler	68	4	the	10	285.0	NA
41	32	23	F	Filler	68	4	foreign	11	284.0	NA
41	32	23	F	Filler	68	4	organization.	12	99.0	NA
41	32	23	F	Question	68	4	NA	NA	3111.0	0
42	32	23	F	Filler	92	5	The	1	260.0	NA
42	32	23	F	Filler	92	5	personal	2	86.0	NA
42	32	23	F	Filler	92	5	trainer	3	183.0	NA
42	32	23	F	Filler	92	5	was	4	82.0	NA
42	32	23	F	Filler	92	5	popular	5	200.0	NA
42	32	23	F	Filler	92	5	among	6	100.0	NA
42	32	23	F	Filler	92	5	athletes	7	19.0	NA
42	32	23	F	Filler	92	5	after	8	80.0	NA
42	32	23	F	Filler	92	5	he	9	285.0	NA
42	32	23	F	Filler	92	5	helped	10	133.0	NA
42	32	23	F	Filler	92	5	the	11	266.0	NA
42	32	23	F	Filler	92	5	bodybuilder	12	568.0	NA
42	32	23	F	Filler	92	5	win	13	253.0	NA
42	32	23	F	Filler	92	5	the	14	199.0	NA
42	32	23	F	Filler	92	5	competition.	15	169.0	NA
42	32	23	F	Question	92	5	NA	NA	1142.0	0
43	32	23	F	Filler	122	6	They	1	445.0	NA
43	32	23	F	Filler	122	6	don't	2	201.0	NA
43	32	23	F	Filler	122	6	know	3	115.0	NA
43	32	23	F	Filler	122	6	which	4	100.0	NA
43	32	23	F	Filler	122	6	family	5	152.0	NA
43	32	23	F	Filler	122	6	the	6	134.0	NA
43	32	23	F	Filler	122	6	hijackers	7	84.0	NA
43	32	23	F	Filler	122	6	held	8	150.0	NA
43	32	23	F	Filler	122	6	hostage	9	134.0	NA
43	32	23	F	Filler	122	6	but	10	83.0	NA
43	32	23	F	Filler	122	6	didn't	11	251.0	NA
43	32	23	F	Filler	122	6	hurt	12	232.0	NA
43	32	23	F	Filler	122	6	the	13	216.0	NA
43	32	23	F	Filler	122	6	children	14	250.0	NA
43	32	23	F	Filler	122	6	of	15	353.0	NA
43	32	23	F	Filler	122	6	too	16	116.0	NA
43	32	23	F	Filler	122	6	much.	17	116.0	NA
43	32	23	F	Question	122	6	NA	NA	1641.0	1
44	32	23	F	Filler	67	4	The	1	313.0	NA
44	32	23	F	Filler	67	4	restaurant	2	199.0	NA
44	32	23	F	Filler	67	4	was	3	117.0	NA
44	32	23	F	Filler	67	4	famous	4	100.0	NA
44	32	23	F	Filler	67	4	for	5	98.0	NA
44	32	23	F	Filler	67	4	its	6	270.0	NA
44	32	23	F	Filler	67	4	French	7	147.0	NA
44	32	23	F	Filler	67	4	pastries	8	70.0	NA
44	32	23	F	Filler	67	4	and	9	165.0	NA
44	32	23	F	Filler	67	4	fine	10	235.0	NA
44	32	23	F	Filler	67	4	wines.	11	133.0	NA
44	32	23	F	Question	67	4	NA	NA	846.0	1
45	32	23	F	swets	33	1	The	1	464.0	NA
45	32	23	F	swets	33	1	butler	2	149.0	NA
45	32	23	F	swets	33	1	of	3	150.0	NA
45	32	23	F	swets	33	1	the	4	184.0	NA
45	32	23	F	swets	33	1	actor	5	283.0	NA
45	32	23	F	swets	33	1	who	6	402.0	NA
45	32	23	F	swets	33	1	did	7	333.0	NA
45	32	23	F	swets	33	1	not	8	301.0	NA
45	32	23	F	swets	33	1	like	9	134.0	NA
45	32	23	F	swets	33	1	himself	10	265.0	NA
45	32	23	F	swets	33	1	very	11	253.0	NA
45	32	23	F	swets	33	1	much	12	198.0	NA
45	32	23	F	swets	33	1	caught	13	283.0	NA
45	32	23	F	swets	33	1	the	14	268.0	NA
45	32	23	F	swets	33	1	armed	15	367.0	NA
45	32	23	F	swets	33	1	robber.	16	249.0	NA
45	32	23	F	Question	33	1	NA	NA	2361.0	0
46	32	23	F	Filler	120	6	Sarah	1	711.0	NA
46	32	23	F	Filler	120	6	won't	2	152.0	NA
46	32	23	F	Filler	120	6	reveal	3	134.0	NA
46	32	23	F	Filler	120	6	which	4	166.0	NA
46	32	23	F	Filler	120	6	race	5	69.0	NA
46	32	23	F	Filler	120	6	she	6	149.0	NA
46	32	23	F	Filler	120	6	won	7	114.0	NA
46	32	23	F	Filler	120	6	without	8	301.0	NA
46	32	23	F	Filler	120	6	entering	9	183.0	NA
46	32	23	F	Filler	120	6	the	10	466.0	NA
46	32	23	F	Filler	120	6	competition	11	271.0	NA
46	32	23	F	Filler	120	6	for	12	350.0	NA
46	32	23	F	Filler	120	6	officially.	13	115.0	NA
46	32	23	F	Question	120	6	NA	NA	978.0	1
47	32	23	F	Filler	71	4	The	1	327.0	NA
47	32	23	F	Filler	71	4	elderly	2	186.0	NA
47	32	23	F	Filler	71	4	woman	3	148.0	NA
47	32	23	F	Filler	71	4	locked	4	116.0	NA
47	32	23	F	Filler	71	4	and	5	133.0	NA
47	32	23	F	Filler	71	4	bolted	6	306.0	NA
47	32	23	F	Filler	71	4	her	7	350.0	NA
47	32	23	F	Filler	71	4	door	8	230.0	NA
47	32	23	F	Filler	71	4	every	9	151.0	NA
47	32	23	F	Filler	71	4	night	10	118.0	NA
47	32	23	F	Filler	71	4	after	11	284.0	NA
47	32	23	F	Filler	71	4	the	12	248.0	NA
47	32	23	F	Filler	71	4	robbers	13	117.0	NA
47	32	23	F	Filler	71	4	took	14	132.0	NA
47	32	23	F	Filler	71	4	her	15	119.0	NA
47	32	23	F	Filler	71	4	best	16	184.0	NA
47	32	23	F	Filler	71	4	pearls.	17	199.0	NA
47	32	23	F	Question	71	4	NA	NA	1076.0	1
48	32	23	F	swets	24	1	The	1	531.0	NA
48	32	23	F	swets	24	1	assistant	2	147.0	NA
48	32	23	F	swets	24	1	of	3	85.0	NA
48	32	23	F	swets	24	1	the	4	85.0	NA
48	32	23	F	swets	24	1	chaplain	5	132.0	NA
48	32	23	F	swets	24	1	who	6	266.0	NA
48	32	23	F	swets	24	1	drew	7	351.0	NA
48	32	23	F	swets	24	1	attention	8	234.0	NA
48	32	23	F	swets	24	1	to	9	182.0	NA
48	32	23	F	swets	24	1	himself	10	352.0	NA
48	32	23	F	swets	24	1	all	11	84.0	NA
48	32	23	F	swets	24	1	the	12	51.0	NA
48	32	23	F	swets	24	1	time	13	150.0	NA
48	32	23	F	swets	24	1	hated	14	217.0	NA
48	32	23	F	swets	24	1	small	15	68.0	NA
48	32	23	F	swets	24	1	children.	16	198.0	NA
48	32	23	F	Question	24	1	NA	NA	1310.0	0
49	32	23	F	Filler	87	5	The	1	530.0	NA
49	32	23	F	Filler	87	5	car	2	82.0	NA
49	32	23	F	Filler	87	5	chased	3	17.0	NA
49	32	23	F	Filler	87	5	the	4	371.0	NA
49	32	23	F	Filler	87	5	robber	5	132.0	NA
49	32	23	F	Filler	87	5	of	6	168.0	NA
49	32	23	F	Filler	87	5	the	7	82.0	NA
49	32	23	F	Filler	87	5	bank	8	382.0	NA
49	32	23	F	Filler	87	5	into	9	102.0	NA
49	32	23	F	Filler	87	5	a	10	100.0	NA
49	32	23	F	Filler	87	5	narrow	11	251.0	NA
49	32	23	F	Filler	87	5	alley.	12	116.0	NA
49	32	23	F	Question	87	5	NA	NA	1726.0	0
50	32	23	F	swets	18	1	The	1	313.0	NA
50	32	23	F	swets	18	1	nephew	2	50.0	NA
50	32	23	F	swets	18	1	of	3	80.0	NA
50	32	23	F	swets	18	1	the	4	169.0	NA
50	32	23	F	swets	18	1	fisherman	5	317.0	NA
50	32	23	F	swets	18	1	who	6	350.0	NA
50	32	23	F	swets	18	1	drowned	7	150.0	NA
50	32	23	F	swets	18	1	himself	8	166.0	NA
50	32	23	F	swets	18	1	in	9	134.0	NA
50	32	23	F	swets	18	1	the	10	283.0	NA
50	32	23	F	swets	18	1	ocean	11	115.0	NA
50	32	23	F	swets	18	1	didn't	12	284.0	NA
50	32	23	F	swets	18	1	know	13	150.0	NA
50	32	23	F	swets	18	1	about	14	182.0	NA
50	32	23	F	swets	18	1	the	15	116.0	NA
50	32	23	F	swets	18	1	tricky	16	19.0	NA
50	32	23	F	swets	18	1	current.	17	201.0	NA
50	32	23	F	Question	18	1	NA	NA	1041.0	1
51	32	23	F	Filler	98	5	The	1	431.0	NA
51	32	23	F	Filler	98	5	husband	2	265.0	NA
51	32	23	F	Filler	98	5	of	3	100.0	NA
51	32	23	F	Filler	98	5	the	4	50.0	NA
51	32	23	F	Filler	98	5	bestselling	5	67.0	NA
51	32	23	F	Filler	98	5	novelist	6	332.0	NA
51	32	23	F	Filler	98	5	was	7	453.0	NA
51	32	23	F	Filler	98	5	into	8	298.0	NA
51	32	23	F	Filler	98	5	collecting	9	234.0	NA
51	32	23	F	Filler	98	5	antiques.	10	600.0	NA
51	32	23	F	Question	98	5	NA	NA	2194.0	1
52	32	23	F	Filler	39	4	The	1	261.0	NA
52	32	23	F	Filler	39	4	overweight	2	219.0	NA
52	32	23	F	Filler	39	4	aunt	3	99.0	NA
52	32	23	F	Filler	39	4	decided	4	334.0	NA
52	32	23	F	Filler	39	4	to	5	116.0	NA
52	32	23	F	Filler	39	4	make	6	185.0	NA
52	32	23	F	Filler	39	4	cookies	7	133.0	NA
52	32	23	F	Filler	39	4	and	8	34.0	NA
52	32	23	F	Filler	39	4	cupcakes	9	168.0	NA
52	32	23	F	Filler	39	4	for	10	313.0	NA
52	32	23	F	Filler	39	4	the	11	119.0	NA
52	32	23	F	Filler	39	4	dinner	12	349.0	NA
52	32	23	F	Filler	39	4	party.	13	84.0	NA
52	32	23	F	Question	39	4	NA	NA	1077.0	1
53	32	23	F	Filler	56	4	The	1	294.0	NA
53	32	23	F	Filler	56	4	actor	2	33.0	NA
53	32	23	F	Filler	56	4	said	3	169.0	NA
53	32	23	F	Filler	56	4	the	4	98.0	NA
53	32	23	F	Filler	56	4	audiences	5	151.0	NA
53	32	23	F	Filler	56	4	believed	6	133.0	NA
53	32	23	F	Filler	56	4	the	7	100.0	NA
53	32	23	F	Filler	56	4	nasty	8	301.0	NA
53	32	23	F	Filler	56	4	remarks	9	101.0	NA
53	32	23	F	Filler	56	4	made	10	250.0	NA
53	32	23	F	Filler	56	4	by	11	166.0	NA
53	32	23	F	Filler	56	4	the	12	300.0	NA
53	32	23	F	Filler	56	4	film	13	186.0	NA
53	32	23	F	Filler	56	4	critic.	14	515.0	NA
53	32	23	F	Question	56	4	NA	NA	2077.0	0
54	32	23	F	Filler	137	7	When	1	283.0	NA
54	32	23	F	Filler	137	7	Leslie	2	114.0	NA
54	32	23	F	Filler	137	7	was	3	52.0	NA
54	32	23	F	Filler	137	7	sneezing	4	132.0	NA
54	32	23	F	Filler	137	7	her	5	368.0	NA
54	32	23	F	Filler	137	7	friends	6	399.0	NA
54	32	23	F	Filler	137	7	laughed	7	299.0	NA
54	32	23	F	Filler	137	7	at	8	383.0	NA
54	32	23	F	Filler	137	7	her.	9	70.0	NA
54	32	23	F	Question	137	7	NA	NA	908.0	0
55	32	23	F	swets	34	2	The	1	1064.0	NA
55	32	23	F	swets	34	2	waiter	2	184.0	NA
55	32	23	F	swets	34	2	of	3	116.0	NA
55	32	23	F	swets	34	2	the	4	65.0	NA
55	32	23	F	swets	34	2	woman	5	116.0	NA
55	32	23	F	swets	34	2	who	6	68.0	NA
55	32	23	F	swets	34	2	considered	7	133.0	NA
55	32	23	F	swets	34	2	herself	8	282.0	NA
55	32	23	F	swets	34	2	a	9	101.0	NA
55	32	23	F	swets	34	2	natural	10	84.0	NA
55	32	23	F	swets	34	2	beauty	11	267.0	NA
55	32	23	F	swets	34	2	spilled	12	99.0	NA
55	32	23	F	swets	34	2	the	13	102.0	NA
55	32	23	F	swets	34	2	drinks.	14	99.0	NA
55	32	23	F	Question	34	2	NA	NA	2609.0	1
56	32	23	F	Filler	143	7	The	1	477.0	NA
56	32	23	F	Filler	143	7	lawyer	2	85.0	NA
56	32	23	F	Filler	143	7	and	3	117.0	NA
56	32	23	F	Filler	143	7	defendant	4	82.0	NA
56	32	23	F	Filler	143	7	whispered	5	167.0	NA
56	32	23	F	Filler	143	7	furiously	6	86.0	NA
56	32	23	F	Filler	143	7	during	7	283.0	NA
56	32	23	F	Filler	143	7	the	8	432.0	NA
56	32	23	F	Filler	143	7	recess.	9	84.0	NA
56	32	23	F	Question	143	7	NA	NA	1346.0	1
57	32	23	F	Filler	66	4	The	1	427.0	NA
57	32	23	F	Filler	66	4	rare	2	67.0	NA
57	32	23	F	Filler	66	4	and	3	119.0	NA
57	32	23	F	Filler	66	4	exotic	4	151.0	NA
57	32	23	F	Filler	66	4	monkey	5	166.0	NA
57	32	23	F	Filler	66	4	was	6	116.0	NA
57	32	23	F	Filler	66	4	the	7	98.0	NA
57	32	23	F	Filler	66	4	center	8	151.0	NA
57	32	23	F	Filler	66	4	of	9	118.0	NA
57	32	23	F	Filler	66	4	attention	10	115.0	NA
57	32	23	F	Filler	66	4	at	11	286.0	NA
57	32	23	F	Filler	66	4	the	12	83.0	NA
57	32	23	F	Filler	66	4	zoo.	13	83.0	NA
57	32	23	F	Question	66	4	NA	NA	842.0	1
58	32	23	F	swets	11	3	The	1	396.0	NA
58	32	23	F	swets	11	3	mother	2	100.0	NA
58	32	23	F	swets	11	3	of	3	53.0	NA
58	32	23	F	swets	11	3	the	4	84.0	NA
58	32	23	F	swets	11	3	surgeon	5	98.0	NA
58	32	23	F	swets	11	3	who	6	66.0	NA
58	32	23	F	swets	11	3	made	7	118.0	NA
58	32	23	F	swets	11	3	a	8	84.0	NA
58	32	23	F	swets	11	3	fool	9	83.0	NA
58	32	23	F	swets	11	3	of	10	133.0	NA
58	32	23	F	swets	11	3	herself	11	115.0	NA
58	32	23	F	swets	11	3	at	12	53.0	NA
58	32	23	F	swets	11	3	the	13	300.0	NA
58	32	23	F	swets	11	3	party	14	332.0	NA
58	32	23	F	swets	11	3	was	15	84.0	NA
58	32	23	F	swets	11	3	greatly	16	115.0	NA
58	32	23	F	swets	11	3	embarrassed.	17	69.0	NA
58	32	23	F	Question	11	3	NA	NA	1107.0	1
59	32	23	F	Filler	88	5	The	1	297.0	NA
59	32	23	F	Filler	88	5	woman's	2	115.0	NA
59	32	23	F	Filler	88	5	posture	3	51.0	NA
59	32	23	F	Filler	88	5	began	4	233.0	NA
59	32	23	F	Filler	88	5	to	5	82.0	NA
59	32	23	F	Filler	88	5	go	6	584.0	NA
59	32	23	F	Filler	88	5	bad	7	84.0	NA
59	32	23	F	Filler	88	5	because	8	133.0	NA
59	32	23	F	Filler	88	5	of	9	268.0	NA
59	32	23	F	Filler	88	5	her	10	148.0	NA
59	32	23	F	Filler	88	5	constant	11	286.0	NA
59	32	23	F	Filler	88	5	slumping.	12	252.0	NA
59	32	23	F	Question	88	5	NA	NA	1291.0	1
60	32	23	F	Filler	43	4	The	1	362.0	NA
60	32	23	F	Filler	43	4	movie	2	168.0	NA
60	32	23	F	Filler	43	4	director	3	149.0	NA
60	32	23	F	Filler	43	4	refused	4	100.0	NA
60	32	23	F	Filler	43	4	to	5	151.0	NA
60	32	23	F	Filler	43	4	work	6	250.0	NA
60	32	23	F	Filler	43	4	with	7	317.0	NA
60	32	23	F	Filler	43	4	the	8	67.0	NA
60	32	23	F	Filler	43	4	producer	9	101.0	NA
60	32	23	F	Filler	43	4	again	10	68.0	NA
60	32	23	F	Filler	43	4	after	11	30.0	NA
60	32	23	F	Filler	43	4	winning	12	53.0	NA
60	32	23	F	Filler	43	4	the	13	234.0	NA
60	32	23	F	Filler	43	4	grand	14	64.0	NA
60	32	23	F	Filler	43	4	prize.	15	69.0	NA
60	32	23	F	Question	43	4	NA	NA	1557.0	1
61	32	23	F	swets	8	3	The	1	280.0	NA
61	32	23	F	swets	8	3	brother	2	82.0	NA
61	32	23	F	swets	8	3	of	3	68.0	NA
61	32	23	F	swets	8	3	the	4	134.0	NA
61	32	23	F	swets	8	3	seamstress	5	31.0	NA
61	32	23	F	swets	8	3	who	6	48.0	NA
61	32	23	F	swets	8	3	entertained	7	352.0	NA
61	32	23	F	swets	8	3	himself	8	101.0	NA
61	32	23	F	swets	8	3	most	9	100.0	NA
61	32	23	F	swets	8	3	evenings	10	167.0	NA
61	32	23	F	swets	8	3	was	11	116.0	NA
61	32	23	F	swets	8	3	reading	12	115.0	NA
61	32	23	F	swets	8	3	a	13	199.0	NA
61	32	23	F	swets	8	3	book.	14	218.0	NA
61	32	23	F	Question	8	3	NA	NA	1763.0	1
62	32	23	F	Filler	110	6	While	1	411.0	NA
62	32	23	F	Filler	110	6	the	2	85.0	NA
62	32	23	F	Filler	110	6	lawyer	3	67.0	NA
62	32	23	F	Filler	110	6	was	4	200.0	NA
62	32	23	F	Filler	110	6	reading	5	83.0	NA
62	32	23	F	Filler	110	6	the	6	99.0	NA
62	32	23	F	Filler	110	6	will	7	166.0	NA
62	32	23	F	Filler	110	6	the	8	119.0	NA
62	32	23	F	Filler	110	6	contract	9	66.0	NA
62	32	23	F	Filler	110	6	remained	10	149.0	NA
62	32	23	F	Filler	110	6	on	11	167.0	NA
62	32	23	F	Filler	110	6	the	12	218.0	NA
62	32	23	F	Filler	110	6	desk.	13	136.0	NA
62	32	23	F	Question	110	6	NA	NA	1760.0	1
63	32	23	F	swets	2	3	The	1	478.0	NA
63	32	23	F	swets	2	3	sister	2	102.0	NA
63	32	23	F	swets	2	3	of	3	84.0	NA
63	32	23	F	swets	2	3	the	4	83.0	NA
63	32	23	F	swets	2	3	fireman	5	99.0	NA
63	32	23	F	swets	2	3	who	6	236.0	NA
63	32	23	F	swets	2	3	criticized	7	101.0	NA
63	32	23	F	swets	2	3	herself	8	330.0	NA
63	32	23	F	swets	2	3	far	9	136.0	NA
63	32	23	F	swets	2	3	too	10	99.0	NA
63	32	23	F	swets	2	3	often	11	84.0	NA
63	32	23	F	swets	2	3	was	12	114.0	NA
63	32	23	F	swets	2	3	painting	13	369.0	NA
63	32	23	F	swets	2	3	the	14	82.0	NA
63	32	23	F	swets	2	3	bedroom.	15	116.0	NA
63	32	23	F	Question	2	3	NA	NA	1143.0	1
64	32	23	F	Filler	97	5	The	1	412.0	NA
64	32	23	F	Filler	97	5	tall	2	84.0	NA
64	32	23	F	Filler	97	5	man	3	83.0	NA
64	32	23	F	Filler	97	5	laughed	4	101.0	NA
64	32	23	F	Filler	97	5	at	5	34.0	NA
64	32	23	F	Filler	97	5	the	6	99.0	NA
64	32	23	F	Filler	97	5	clumsy	7	116.0	NA
64	32	23	F	Filler	97	5	child	8	100.0	NA
64	32	23	F	Filler	97	5	who	9	134.0	NA
64	32	23	F	Filler	97	5	spilled	10	216.0	NA
64	32	23	F	Filler	97	5	the	11	148.0	NA
64	32	23	F	Filler	97	5	milk	12	103.0	NA
64	32	23	F	Filler	97	5	on	13	316.0	NA
64	32	23	F	Filler	97	5	himself.	14	182.0	NA
64	32	23	F	Question	97	5	NA	NA	1313.0	0
65	32	23	F	Filler	85	5	The	1	330.0	NA
65	32	23	F	Filler	85	5	college	2	101.0	NA
65	32	23	F	Filler	85	5	students	3	349.0	NA
65	32	23	F	Filler	85	5	were	4	435.0	NA
65	32	23	F	Filler	85	5	upset	5	99.0	NA
65	32	23	F	Filler	85	5	that	6	184.0	NA
65	32	23	F	Filler	85	5	they	7	49.0	NA
65	32	23	F	Filler	85	5	had	8	117.0	NA
65	32	23	F	Filler	85	5	an	9	416.0	NA
65	32	23	F	Filler	85	5	exam	10	100.0	NA
65	32	23	F	Filler	85	5	the	11	251.0	NA
65	32	23	F	Filler	85	5	next	12	83.0	NA
65	32	23	F	Filler	85	5	day.	13	50.0	NA
65	32	23	F	Question	85	5	NA	NA	1343.0	1
66	32	23	F	Filler	108	5	The	1	314.0	NA
66	32	23	F	Filler	108	5	museum	2	65.0	NA
66	32	23	F	Filler	108	5	wing	3	101.0	NA
66	32	23	F	Filler	108	5	which	4	102.0	NA
66	32	23	F	Filler	108	5	housed	5	131.0	NA
66	32	23	F	Filler	108	5	all	6	320.0	NA
66	32	23	F	Filler	108	5	the	7	351.0	NA
66	32	23	F	Filler	108	5	Picasso	8	267.0	NA
66	32	23	F	Filler	108	5	paintings	9	314.0	NA
66	32	23	F	Filler	108	5	was	10	251.0	NA
66	32	23	F	Filler	108	5	very	11	233.0	NA
66	32	23	F	Filler	108	5	crowded.	12	135.0	NA
66	32	23	F	Question	108	5	NA	NA	1658.0	1
67	32	23	F	swets	29	3	The	1	431.0	NA
67	32	23	F	swets	29	3	daughter	2	99.0	NA
67	32	23	F	swets	29	3	of	3	100.0	NA
67	32	23	F	swets	29	3	the	4	84.0	NA
67	32	23	F	swets	29	3	colonel	5	98.0	NA
67	32	23	F	swets	29	3	who	6	66.0	NA
67	32	23	F	swets	29	3	enjoyed	7	102.0	NA
67	32	23	F	swets	29	3	herself	8	99.0	NA
67	32	23	F	swets	29	3	a	9	118.0	NA
67	32	23	F	swets	29	3	lot	10	515.0	NA
67	32	23	F	swets	29	3	was	11	352.0	NA
67	32	23	F	swets	29	3	out	12	233.0	NA
67	32	23	F	swets	29	3	on	13	298.0	NA
67	32	23	F	swets	29	3	the	14	250.0	NA
67	32	23	F	swets	29	3	balcony.	15	136.0	NA
67	32	23	F	Question	29	3	NA	NA	1048.0	1
68	32	23	F	Filler	135	7	While	1	312.0	NA
68	32	23	F	Filler	135	7	Donna	2	50.0	NA
68	32	23	F	Filler	135	7	and	3	385.0	NA
68	32	23	F	Filler	135	7	Scott	4	115.0	NA
68	32	23	F	Filler	135	7	met	5	68.0	NA
68	32	23	F	Filler	135	7	their	6	316.0	NA
68	32	23	F	Filler	135	7	agent	7	151.0	NA
68	32	23	F	Filler	135	7	some	8	284.0	NA
68	32	23	F	Filler	135	7	friends	9	118.0	NA
68	32	23	F	Filler	135	7	called	10	450.0	NA
68	32	23	F	Filler	135	7	and	11	167.0	NA
68	32	23	F	Filler	135	7	left	12	81.0	NA
68	32	23	F	Filler	135	7	a	13	86.0	NA
68	32	23	F	Filler	135	7	message.	14	382.0	NA
68	32	23	F	Question	135	7	NA	NA	1291.0	1
69	32	23	F	Filler	72	4	The	1	314.0	NA
69	32	23	F	Filler	72	4	secretaries	2	485.0	NA
69	32	23	F	Filler	72	4	couldn't	3	216.0	NA
69	32	23	F	Filler	72	4	break	4	34.0	NA
69	32	23	F	Filler	72	4	away	5	133.0	NA
69	32	23	F	Filler	72	4	from	6	317.0	NA
69	32	23	F	Filler	72	4	their	7	134.0	NA
69	32	23	F	Filler	72	4	habit	8	84.0	NA
69	32	23	F	Filler	72	4	of	9	132.0	NA
69	32	23	F	Filler	72	4	coffee	10	134.0	NA
69	32	23	F	Filler	72	4	and	11	99.0	NA
69	32	23	F	Filler	72	4	cigarettes	12	68.0	NA
69	32	23	F	Filler	72	4	during	13	414.0	NA
69	32	23	F	Filler	72	4	their	14	84.0	NA
69	32	23	F	Filler	72	4	breaks.	15	183.0	NA
69	32	23	F	Question	72	4	NA	NA	1577.0	1
70	32	23	F	swets	7	2	The	1	279.0	NA
70	32	23	F	swets	7	2	nephew	2	83.0	NA
70	32	23	F	swets	7	2	of	3	117.0	NA
70	32	23	F	swets	7	2	the	4	101.0	NA
70	32	23	F	swets	7	2	waitress	5	81.0	NA
70	32	23	F	swets	7	2	who	6	102.0	NA
70	32	23	F	swets	7	2	hurt	7	249.0	NA
70	32	23	F	swets	7	2	herself	8	202.0	NA
70	32	23	F	swets	7	2	on	9	97.0	NA
70	32	23	F	swets	7	2	the	10	83.0	NA
70	32	23	F	swets	7	2	bicycle	11	118.0	NA
70	32	23	F	swets	7	2	was	12	87.0	NA
70	32	23	F	swets	7	2	angry	13	99.0	NA
70	32	23	F	swets	7	2	about	14	134.0	NA
70	32	23	F	swets	7	2	the	15	84.0	NA
70	32	23	F	swets	7	2	incident.	16	182.0	NA
70	32	23	F	Question	7	2	NA	NA	860.0	0
71	32	23	F	Filler	142	7	The	1	363.0	NA
71	32	23	F	Filler	142	7	cats	2	67.0	NA
71	32	23	F	Filler	142	7	and	3	133.0	NA
71	32	23	F	Filler	142	7	dogs	4	98.0	NA
71	32	23	F	Filler	142	7	glared	5	85.0	NA
71	32	23	F	Filler	142	7	at	6	100.0	NA
71	32	23	F	Filler	142	7	each	7	335.0	NA
71	32	23	F	Filler	142	7	other	8	100.0	NA
71	32	23	F	Filler	142	7	warily.	9	84.0	NA
71	32	23	F	Question	142	7	NA	NA	1076.0	1
72	32	23	F	swets	36	1	The	1	312.0	NA
72	32	23	F	swets	36	1	daughter	2	67.0	NA
72	32	23	F	swets	36	1	of	3	116.0	NA
72	32	23	F	swets	36	1	the	4	83.0	NA
72	32	23	F	swets	36	1	saleswoman	5	68.0	NA
72	32	23	F	swets	36	1	who	6	98.0	NA
72	32	23	F	swets	36	1	talked	7	51.0	NA
72	32	23	F	swets	36	1	to	8	166.0	NA
72	32	23	F	swets	36	1	herself	9	435.0	NA
72	32	23	F	swets	36	1	all	10	151.0	NA
72	32	23	F	swets	36	1	the	11	83.0	NA
72	32	23	F	swets	36	1	time	12	315.0	NA
72	32	23	F	swets	36	1	walked	13	118.0	NA
72	32	23	F	swets	36	1	into	14	101.0	NA
72	32	23	F	swets	36	1	the	15	82.0	NA
72	32	23	F	swets	36	1	room.	16	82.0	NA
72	32	23	F	Question	36	1	NA	NA	1361.0	0
73	32	23	F	Filler	105	5	The	1	293.0	NA
73	32	23	F	Filler	105	5	actors	2	50.0	NA
73	32	23	F	Filler	105	5	rehearsed	3	119.0	NA
73	32	23	F	Filler	105	5	the	4	83.0	NA
73	32	23	F	Filler	105	5	play	5	82.0	NA
73	32	23	F	Filler	105	5	so	6	102.0	NA
73	32	23	F	Filler	105	5	much	7	64.0	NA
73	32	23	F	Filler	105	5	that	8	86.0	NA
73	32	23	F	Filler	105	5	they	9	114.0	NA
73	32	23	F	Filler	105	5	became	10	284.0	NA
73	32	23	F	Filler	105	5	bored	11	50.0	NA
73	32	23	F	Filler	105	5	with	12	101.0	NA
73	32	23	F	Filler	105	5	it.	13	130.0	NA
73	32	23	F	Question	105	5	NA	NA	1407.0	1
74	32	23	F	swets	20	3	The	1	213.0	NA
74	32	23	F	swets	20	3	sister	2	82.0	NA
74	32	23	F	swets	20	3	of	3	198.0	NA
74	32	23	F	swets	20	3	the	4	84.0	NA
74	32	23	F	swets	20	3	count	5	84.0	NA
74	32	23	F	swets	20	3	who	6	102.0	NA
74	32	23	F	swets	20	3	crippled	7	148.0	NA
74	32	23	F	swets	20	3	herself	8	250.0	NA
74	32	23	F	swets	20	3	by	9	117.0	NA
74	32	23	F	swets	20	3	falling	10	217.0	NA
74	32	23	F	swets	20	3	off	11	99.0	NA
74	32	23	F	swets	20	3	a	12	101.0	NA
74	32	23	F	swets	20	3	horse	13	68.0	NA
74	32	23	F	swets	20	3	took	14	115.0	NA
74	32	23	F	swets	20	3	a	15	136.0	NA
74	32	23	F	swets	20	3	long	16	100.0	NA
74	32	23	F	swets	20	3	time	17	117.0	NA
74	32	23	F	swets	20	3	to	18	115.0	NA
74	32	23	F	swets	20	3	get	19	118.0	NA
74	32	23	F	swets	20	3	over	20	85.0	NA
74	32	23	F	swets	20	3	it.	21	81.0	NA
74	32	23	F	Question	20	3	NA	NA	3162.0	0
75	32	23	F	Filler	90	5	The	1	310.0	NA
75	32	23	F	Filler	90	5	artist	2	66.0	NA
75	32	23	F	Filler	90	5	was	3	117.0	NA
75	32	23	F	Filler	90	5	not	4	67.0	NA
75	32	23	F	Filler	90	5	satisfied	5	85.0	NA
75	32	23	F	Filler	90	5	with	6	98.0	NA
75	32	23	F	Filler	90	5	his	7	149.0	NA
75	32	23	F	Filler	90	5	painting	8	118.0	NA
75	32	23	F	Filler	90	5	because	9	101.0	NA
75	32	23	F	Filler	90	5	the	10	132.0	NA
75	32	23	F	Filler	90	5	shading	11	119.0	NA
75	32	23	F	Filler	90	5	was	12	365.0	NA
75	32	23	F	Filler	90	5	off.	13	117.0	NA
75	32	23	F	Question	90	5	NA	NA	1343.0	0
76	32	23	F	swets	3	1	The	1	345.0	NA
76	32	23	F	swets	3	1	partner	2	68.0	NA
76	32	23	F	swets	3	1	of	3	166.0	NA
76	32	23	F	swets	3	1	the	4	184.0	NA
76	32	23	F	swets	3	1	salesman	5	150.0	NA
76	32	23	F	swets	3	1	who	6	115.0	NA
76	32	23	F	swets	3	1	amused	7	168.0	NA
76	32	23	F	swets	3	1	himself	8	334.0	NA
76	32	23	F	swets	3	1	quite	9	366.0	NA
76	32	23	F	swets	3	1	a	10	252.0	NA
76	32	23	F	swets	3	1	bit	11	418.0	NA
76	32	23	F	swets	3	1	was	12	83.0	NA
76	32	23	F	swets	3	1	writing	13	83.0	NA
76	32	23	F	swets	3	1	a	14	349.0	NA
76	32	23	F	swets	3	1	letter	15	134.0	NA
76	32	23	F	swets	3	1	to	16	133.0	NA
76	32	23	F	swets	3	1	the	17	300.0	NA
76	32	23	F	swets	3	1	editor.	18	399.0	NA
76	32	23	F	Question	3	1	NA	NA	1241.0	1
77	32	23	F	Filler	76	5	After	1	396.0	NA
77	32	23	F	Filler	76	5	fifty	2	200.0	NA
77	32	23	F	Filler	76	5	years	3	49.0	NA
77	32	23	F	Filler	76	5	of	4	169.0	NA
77	32	23	F	Filler	76	5	marriage	5	181.0	NA
77	32	23	F	Filler	76	5	the	6	83.0	NA
77	32	23	F	Filler	76	5	old	7	183.0	NA
77	32	23	F	Filler	76	5	couple	8	502.0	NA
77	32	23	F	Filler	76	5	still	9	116.0	NA
77	32	23	F	Filler	76	5	felt	10	115.0	NA
77	32	23	F	Filler	76	5	the	11	68.0	NA
77	32	23	F	Filler	76	5	same	12	150.0	NA
77	32	23	F	Filler	76	5	about	13	117.0	NA
77	32	23	F	Filler	76	5	each	14	99.0	NA
77	32	23	F	Filler	76	5	other	15	116.0	NA
77	32	23	F	Filler	76	5	as	16	116.0	NA
77	32	23	F	Filler	76	5	they	17	202.0	NA
77	32	23	F	Filler	76	5	had	18	116.0	NA
77	32	23	F	Filler	76	5	on	19	102.0	NA
77	32	23	F	Filler	76	5	their	20	115.0	NA
77	32	23	F	Filler	76	5	wedding	21	84.0	NA
77	32	23	F	Filler	76	5	day.	22	351.0	NA
77	32	23	F	Question	76	5	NA	NA	1355.0	1
78	32	23	F	Filler	74	5	My	1	444.0	NA
78	32	23	F	Filler	74	5	former	2	69.0	NA
78	32	23	F	Filler	74	5	girlfriend	3	133.0	NA
78	32	23	F	Filler	74	5	criticized	4	134.0	NA
78	32	23	F	Filler	74	5	the	5	100.0	NA
78	32	23	F	Filler	74	5	author's	6	183.0	NA
78	32	23	F	Filler	74	5	agent	7	350.0	NA
78	32	23	F	Filler	74	5	because	8	134.0	NA
78	32	23	F	Filler	74	5	he	9	66.0	NA
78	32	23	F	Filler	74	5	had	10	102.0	NA
78	32	23	F	Filler	74	5	failed	11	182.0	NA
78	32	23	F	Filler	74	5	to	12	149.0	NA
78	32	23	F	Filler	74	5	meet	13	119.0	NA
78	32	23	F	Filler	74	5	a	14	98.0	NA
78	32	23	F	Filler	74	5	deadline.	15	135.0	NA
78	32	23	F	Question	74	5	NA	NA	1845.0	0
79	32	23	F	swets	22	2	The	1	344.0	NA
79	32	23	F	swets	22	2	niece	2	65.0	NA
79	32	23	F	swets	22	2	of	3	69.0	NA
79	32	23	F	swets	22	2	the	4	117.0	NA
79	32	23	F	swets	22	2	commander	5	99.0	NA
79	32	23	F	swets	22	2	who	6	51.0	NA
79	32	23	F	swets	22	2	calmed	7	116.0	NA
79	32	23	F	swets	22	2	himself	8	185.0	NA
79	32	23	F	swets	22	2	after	9	167.0	NA
79	32	23	F	swets	22	2	the	10	49.0	NA
79	32	23	F	swets	22	2	tragedy	11	199.0	NA
79	32	23	F	swets	22	2	was	12	202.0	NA
79	32	23	F	swets	22	2	waiting	13	366.0	NA
79	32	23	F	swets	22	2	for	14	114.0	NA
79	32	23	F	swets	22	2	the	15	271.0	NA
79	32	23	F	swets	22	2	doctor.	16	100.0	NA
79	32	23	F	Question	22	2	NA	NA	2511.0	0
80	32	23	F	Filler	113	6	While	1	313.0	NA
80	32	23	F	Filler	113	6	Noah	2	65.0	NA
80	32	23	F	Filler	113	6	was	3	85.0	NA
80	32	23	F	Filler	113	6	waking	4	150.0	NA
80	32	23	F	Filler	113	6	up	5	102.0	NA
80	32	23	F	Filler	113	6	the	6	100.0	NA
80	32	23	F	Filler	113	6	man	7	331.0	NA
80	32	23	F	Filler	113	6	the	8	85.0	NA
80	32	23	F	Filler	113	6	neighbor	9	251.0	NA
80	32	23	F	Filler	113	6	coughed	10	82.0	NA
80	32	23	F	Filler	113	6	loudly.	11	167.0	NA
80	32	23	F	Question	113	6	NA	NA	795.0	1
81	32	23	F	Filler	50	4	The	1	296.0	NA
81	32	23	F	Filler	50	4	new	2	117.0	NA
81	32	23	F	Filler	50	4	language	3	166.0	NA
81	32	23	F	Filler	50	4	requirement	4	134.0	NA
81	32	23	F	Filler	50	4	made	5	215.0	NA
81	32	23	F	Filler	50	4	all	6	334.0	NA
81	32	23	F	Filler	50	4	the	7	98.0	NA
81	32	23	F	Filler	50	4	students	8	185.0	NA
81	32	23	F	Filler	50	4	say	9	116.0	NA
81	32	23	F	Filler	50	4	bad	10	135.0	NA
81	32	23	F	Filler	50	4	things	11	100.0	NA
81	32	23	F	Filler	50	4	about	12	899.0	NA
81	32	23	F	Filler	50	4	the	13	235.0	NA
81	32	23	F	Filler	50	4	dean	14	98.0	NA
81	32	23	F	Filler	50	4	of	15	34.0	NA
81	32	23	F	Filler	50	4	the	16	150.0	NA
81	32	23	F	Filler	50	4	college.	17	153.0	NA
81	32	23	F	Question	50	4	NA	NA	1155.0	1
82	32	23	F	Filler	116	6	As	1	278.0	NA
82	32	23	F	Filler	116	6	the	2	84.0	NA
82	32	23	F	Filler	116	6	survivors	3	168.0	NA
82	32	23	F	Filler	116	6	were	4	150.0	NA
82	32	23	F	Filler	116	6	embracing	5	132.0	NA
82	32	23	F	Filler	116	6	the	6	52.0	NA
82	32	23	F	Filler	116	6	firefighter	7	134.0	NA
82	32	23	F	Filler	116	6	coughed	8	100.0	NA
82	32	23	F	Filler	116	6	violently.	9	132.0	NA
82	32	23	F	Question	116	6	NA	NA	750.0	1
83	32	23	F	swets	23	3	The	1	313.0	NA
83	32	23	F	swets	23	3	father	2	100.0	NA
83	32	23	F	swets	23	3	of	3	148.0	NA
83	32	23	F	swets	23	3	the	4	186.0	NA
83	32	23	F	swets	23	3	ballerina	5	166.0	NA
83	32	23	F	swets	23	3	who	6	447.0	NA
83	32	23	F	swets	23	3	found	7	168.0	NA
83	32	23	F	swets	23	3	himself	8	67.0	NA
83	32	23	F	swets	23	3	in	9	50.0	NA
83	32	23	F	swets	23	3	a	10	119.0	NA
83	32	23	F	swets	23	3	lot	11	132.0	NA
83	32	23	F	swets	23	3	of	12	85.0	NA
83	32	23	F	swets	23	3	trouble	13	102.0	NA
83	32	23	F	swets	23	3	phoned	14	116.0	NA
83	32	23	F	swets	23	3	the	15	67.0	NA
83	32	23	F	swets	23	3	police.	16	132.0	NA
83	32	23	F	Question	23	3	NA	NA	1516.0	1
84	32	23	F	Filler	115	6	As	1	328.0	NA
84	32	23	F	Filler	115	6	Elaine	2	102.0	NA
84	32	23	F	Filler	115	6	and	3	101.0	NA
84	32	23	F	Filler	115	6	Robert	4	102.0	NA
84	32	23	F	Filler	115	6	fought	5	64.0	NA
84	32	23	F	Filler	115	6	the	6	82.0	NA
84	32	23	F	Filler	115	6	mosquitoes	7	137.0	NA
84	32	23	F	Filler	115	6	whined	8	166.0	NA
84	32	23	F	Filler	115	6	annoyingly.	9	134.0	NA
84	32	23	F	Question	115	6	NA	NA	1990.0	0
85	32	23	F	Filler	125	6	The	1	364.0	NA
85	32	23	F	Filler	125	6	bosses	2	548.0	NA
85	32	23	F	Filler	125	6	and	3	150.0	NA
85	32	23	F	Filler	125	6	secretaries	4	468.0	NA
85	32	23	F	Filler	125	6	took	5	182.0	NA
85	32	23	F	Filler	125	6	a	6	35.0	NA
85	32	23	F	Filler	125	6	long	7	100.0	NA
85	32	23	F	Filler	125	6	lunch	8	182.0	NA
85	32	23	F	Filler	125	6	together	9	85.0	NA
85	32	23	F	Filler	125	6	every	10	133.0	NA
85	32	23	F	Filler	125	6	Friday.	11	84.0	NA
85	32	23	F	Question	125	6	NA	NA	2144.0	1
86	32	23	F	swets	14	3	The	1	212.0	NA
86	32	23	F	swets	14	3	father	2	52.0	NA
86	32	23	F	swets	14	3	of	3	250.0	NA
86	32	23	F	swets	14	3	the	4	149.0	NA
86	32	23	F	swets	14	3	nurse	5	134.0	NA
86	32	23	F	swets	14	3	who	6	66.0	NA
86	32	23	F	swets	14	3	injured	7	617.0	NA
86	32	23	F	swets	14	3	himself	8	670.0	NA
86	32	23	F	swets	14	3	last	9	164.0	NA
86	32	23	F	swets	14	3	summer	10	136.0	NA
86	32	23	F	swets	14	3	had	11	350.0	NA
86	32	23	F	swets	14	3	lived	12	167.0	NA
86	32	23	F	swets	14	3	in	13	133.0	NA
86	32	23	F	swets	14	3	Wales.	14	132.0	NA
86	32	23	F	Question	14	3	NA	NA	1640.0	1
87	32	23	F	Filler	124	6	The	1	297.0	NA
87	32	23	F	Filler	124	6	mothers	2	101.0	NA
87	32	23	F	Filler	124	6	and	3	116.0	NA
87	32	23	F	Filler	124	6	teachers	4	51.0	NA
87	32	23	F	Filler	124	6	played	5	165.0	NA
87	32	23	F	Filler	124	6	tennis	6	84.0	NA
87	32	23	F	Filler	124	6	after	7	100.0	NA
87	32	23	F	Filler	124	6	the	8	100.0	NA
87	32	23	F	Filler	124	6	kids	9	101.0	NA
87	32	23	F	Filler	124	6	left.	10	117.0	NA
87	32	23	F	Question	124	6	NA	NA	910.0	1
88	32	23	F	Filler	94	5	After	1	330.0	NA
88	32	23	F	Filler	94	5	months	2	84.0	NA
88	32	23	F	Filler	94	5	of	3	134.0	NA
88	32	23	F	Filler	94	5	preparation	4	135.0	NA
88	32	23	F	Filler	94	5	the	5	147.0	NA
88	32	23	F	Filler	94	5	ballerina	6	150.0	NA
88	32	23	F	Filler	94	5	was	7	102.0	NA
88	32	23	F	Filler	94	5	getting	8	215.0	NA
88	32	23	F	Filler	94	5	ready	9	768.0	NA
88	32	23	F	Filler	94	5	for	10	134.0	NA
88	32	23	F	Filler	94	5	opening	11	100.0	NA
88	32	23	F	Filler	94	5	night.	12	100.0	NA
88	32	23	F	Question	94	5	NA	NA	891.0	0
89	32	23	F	swets	17	3	The	1	297.0	NA
89	32	23	F	swets	17	3	bank	2	82.0	NA
89	32	23	F	swets	17	3	manager	3	117.0	NA
89	32	23	F	swets	17	3	of	4	233.0	NA
89	32	23	F	swets	17	3	the	5	167.0	NA
89	32	23	F	swets	17	3	heiress	6	98.0	NA
89	32	23	F	swets	17	3	who	7	100.0	NA
89	32	23	F	swets	17	3	bankrupted	8	168.0	NA
89	32	23	F	swets	17	3	himself	9	83.0	NA
89	32	23	F	swets	17	3	last	10	167.0	NA
89	32	23	F	swets	17	3	year	11	166.0	NA
89	32	23	F	swets	17	3	still	12	135.0	NA
89	32	23	F	swets	17	3	made	13	83.0	NA
89	32	23	F	swets	17	3	risky	14	200.0	NA
89	32	23	F	swets	17	3	investments.	15	198.0	NA
89	32	23	F	Question	17	3	NA	NA	1645.0	1
90	32	23	F	Filler	62	4	After	1	329.0	NA
90	32	23	F	Filler	62	4	much	2	102.0	NA
90	32	23	F	Filler	62	4	deliberation	3	167.0	NA
90	32	23	F	Filler	62	4	the	4	132.0	NA
90	32	23	F	Filler	62	4	jury	5	150.0	NA
90	32	23	F	Filler	62	4	found	6	117.0	NA
90	32	23	F	Filler	62	4	the	7	84.0	NA
90	32	23	F	Filler	62	4	defendant	8	116.0	NA
90	32	23	F	Filler	62	4	not	9	101.0	NA
90	32	23	F	Filler	62	4	guilty.	10	101.0	NA
90	32	23	F	Question	62	4	NA	NA	910.0	1
91	32	23	F	Filler	96	5	The	1	280.0	NA
91	32	23	F	Filler	96	5	evil	2	133.0	NA
91	32	23	F	Filler	96	5	man	3	183.0	NA
91	32	23	F	Filler	96	5	watched	4	134.0	NA
91	32	23	F	Filler	96	5	the	5	99.0	NA
91	32	23	F	Filler	96	5	doorway	6	117.0	NA
91	32	23	F	Filler	96	5	of	7	101.0	NA
91	32	23	F	Filler	96	5	the	8	83.0	NA
91	32	23	F	Filler	96	5	bar	9	98.0	NA
91	32	23	F	Filler	96	5	every	10	118.0	NA
91	32	23	F	Filler	96	5	Friday	11	103.0	NA
91	32	23	F	Filler	96	5	night.	12	83.0	NA
91	32	23	F	Question	96	5	NA	NA	1175.0	1
92	32	23	F	swets	9	1	The	1	362.0	NA
92	32	23	F	swets	9	1	sister	2	202.0	NA
92	32	23	F	swets	9	1	of	3	115.0	NA
92	32	23	F	swets	9	1	the	4	119.0	NA
92	32	23	F	swets	9	1	schoolgirl	5	132.0	NA
92	32	23	F	swets	9	1	who	6	98.0	NA
92	32	23	F	swets	9	1	burned	7	118.0	NA
92	32	23	F	swets	9	1	herself	8	133.0	NA
92	32	23	F	swets	9	1	the	9	620.0	NA
92	32	23	F	swets	9	1	other	10	150.0	NA
92	32	23	F	swets	9	1	day	11	132.0	NA
92	32	23	F	swets	9	1	was	12	134.0	NA
92	32	23	F	swets	9	1	usually	13	133.0	NA
92	32	23	F	swets	9	1	very	14	400.0	NA
92	32	23	F	swets	9	1	careful.	15	103.0	NA
92	32	23	F	Question	9	1	NA	NA	1543.0	0
93	32	23	F	Filler	118	6	As	1	444.0	NA
93	32	23	F	Filler	118	6	the	2	135.0	NA
93	32	23	F	Filler	118	6	dog	3	132.0	NA
93	32	23	F	Filler	118	6	ran	4	117.0	NA
93	32	23	F	Filler	118	6	Wanda	5	200.0	NA
93	32	23	F	Filler	118	6	watched	6	518.0	NA
93	32	23	F	Filler	118	6	from	7	334.0	NA
93	32	23	F	Filler	118	6	the	8	232.0	NA
93	32	23	F	Filler	118	6	window.	9	250.0	NA
93	32	23	F	Question	118	6	NA	NA	776.0	1
94	32	23	F	swets	6	1	The	1	496.0	NA
94	32	23	F	swets	6	1	brother	2	149.0	NA
94	32	23	F	swets	6	1	of	3	50.0	NA
94	32	23	F	swets	6	1	the	4	152.0	NA
94	32	23	F	swets	6	1	mayor	5	182.0	NA
94	32	23	F	swets	6	1	who	6	83.0	NA
94	32	23	F	swets	6	1	complimented	7	133.0	NA
94	32	23	F	swets	6	1	himself	8	249.0	NA
94	32	23	F	swets	6	1	constantly	9	168.0	NA
94	32	23	F	swets	6	1	was	10	116.0	NA
94	32	23	F	swets	6	1	bothered	11	67.0	NA
94	32	23	F	swets	6	1	by	12	168.0	NA
94	32	23	F	swets	6	1	the	13	200.0	NA
94	32	23	F	swets	6	1	reporter.	14	134.0	NA
94	32	23	F	Question	6	1	NA	NA	1694.0	1
95	32	23	F	Filler	139	7	Laurie	1	298.0	NA
95	32	23	F	Filler	139	7	asked	2	132.0	NA
95	32	23	F	Filler	139	7	which	3	115.0	NA
95	32	23	F	Filler	139	7	truck	4	168.0	NA
95	32	23	F	Filler	139	7	the	5	68.0	NA
95	32	23	F	Filler	139	7	dealership	6	198.0	NA
95	32	23	F	Filler	139	7	sold	7	384.0	NA
95	32	23	F	Filler	139	7	but	8	100.0	NA
95	32	23	F	Filler	139	7	didn't	9	152.0	NA
95	32	23	F	Filler	139	7	paint	10	99.0	NA
95	32	23	F	Filler	139	7	completely.	11	168.0	NA
95	32	23	F	Question	139	7	NA	NA	2656.0	1
96	32	23	F	swets	5	3	The	1	595.0	NA
96	32	23	F	swets	5	3	aunt	2	66.0	NA
96	32	23	F	swets	5	3	of	3	168.0	NA
96	32	23	F	swets	5	3	the	4	151.0	NA
96	32	23	F	swets	5	3	bishop	5	165.0	NA
96	32	23	F	swets	5	3	who	6	99.0	NA
96	32	23	F	swets	5	3	injured	7	117.0	NA
96	32	23	F	swets	5	3	herself	8	50.0	NA
96	32	23	F	swets	5	3	last	9	133.0	NA
96	32	23	F	swets	5	3	summer	10	435.0	NA
96	32	23	F	swets	5	3	was	11	118.0	NA
96	32	23	F	swets	5	3	concerned	12	132.0	NA
96	32	23	F	swets	5	3	about	13	568.0	NA
96	32	23	F	swets	5	3	the	14	116.0	NA
96	32	23	F	swets	5	3	infection.	15	67.0	NA
96	32	23	F	Question	5	3	NA	NA	1012.0	0
97	32	23	F	Filler	89	5	Jim	1	463.0	NA
97	32	23	F	Filler	89	5	watered	2	165.0	NA
97	32	23	F	Filler	89	5	the	3	153.0	NA
97	32	23	F	Filler	89	5	tropical	4	149.0	NA
97	32	23	F	Filler	89	5	plants	5	68.0	NA
97	32	23	F	Filler	89	5	of	6	17.0	NA
97	32	23	F	Filler	89	5	his	7	147.0	NA
97	32	23	F	Filler	89	5	neighbor	8	103.0	NA
97	32	23	F	Filler	89	5	because	9	132.0	NA
97	32	23	F	Filler	89	5	she	10	166.0	NA
97	32	23	F	Filler	89	5	had	11	168.0	NA
97	32	23	F	Filler	89	5	gone	12	434.0	NA
97	32	23	F	Filler	89	5	out	13	216.0	NA
97	32	23	F	Filler	89	5	of	14	148.0	NA
97	32	23	F	Filler	89	5	town	15	185.0	NA
97	32	23	F	Filler	89	5	for	16	684.0	NA
97	32	23	F	Filler	89	5	a	17	349.0	NA
97	32	23	F	Filler	89	5	few	18	150.0	NA
97	32	23	F	Filler	89	5	days.	19	118.0	NA
97	32	23	F	Question	89	5	NA	NA	807.0	0
98	32	23	F	swets	15	1	The	1	327.0	NA
98	32	23	F	swets	15	1	sister	2	134.0	NA
98	32	23	F	swets	15	1	of	3	116.0	NA
98	32	23	F	swets	15	1	the	4	136.0	NA
98	32	23	F	swets	15	1	beautician	5	132.0	NA
98	32	23	F	swets	15	1	who	6	115.0	NA
98	32	23	F	swets	15	1	cut	7	216.0	NA
98	32	23	F	swets	15	1	herself	8	116.0	NA
98	32	23	F	swets	15	1	on	9	135.0	NA
98	32	23	F	swets	15	1	the	10	134.0	NA
98	32	23	F	swets	15	1	broken	11	150.0	NA
98	32	23	F	swets	15	1	glass	12	234.0	NA
98	32	23	F	swets	15	1	phoned	13	148.0	NA
98	32	23	F	swets	15	1	for	14	199.0	NA
98	32	23	F	swets	15	1	a	15	221.0	NA
98	32	23	F	swets	15	1	doctor.	16	80.0	NA
98	32	23	F	Question	15	1	NA	NA	2529.0	1
99	32	23	F	Filler	140	7	The	1	847.0	NA
99	32	23	F	Filler	140	7	investigators	2	402.0	NA
99	32	23	F	Filler	140	7	asked	3	183.0	NA
99	32	23	F	Filler	140	7	which	4	166.0	NA
99	32	23	F	Filler	140	7	mansion	5	166.0	NA
99	32	23	F	Filler	140	7	the	6	152.0	NA
99	32	23	F	Filler	140	7	owner	7	147.0	NA
99	32	23	F	Filler	140	7	sold	8	184.0	NA
99	32	23	F	Filler	140	7	and	9	118.0	NA
99	32	23	F	Filler	140	7	didn't	10	166.0	NA
99	32	23	F	Filler	140	7	repair	11	183.0	NA
99	32	23	F	Filler	140	7	ten	12	66.0	NA
99	32	23	F	Filler	140	7	years	13	168.0	NA
99	32	23	F	Filler	140	7	ago.	14	167.0	NA
99	32	23	F	Question	140	7	NA	NA	1234.0	1
100	32	23	F	Filler	46	4	The	1	2778.0	NA
100	32	23	F	Filler	46	4	preacher	2	120.0	NA
100	32	23	F	Filler	46	4	of	3	132.0	NA
100	32	23	F	Filler	46	4	the	4	97.0	NA
100	32	23	F	Filler	46	4	congregation	5	169.0	NA
100	32	23	F	Filler	46	4	had	6	69.0	NA
100	32	23	F	Filler	46	4	given	7	66.0	NA
100	32	23	F	Filler	46	4	a	8	101.0	NA
100	32	23	F	Filler	46	4	sermon	9	67.0	NA
100	32	23	F	Filler	46	4	at	10	132.0	NA
100	32	23	F	Filler	46	4	a	11	133.0	NA
100	32	23	F	Filler	46	4	local	12	234.0	NA
100	32	23	F	Filler	46	4	school.	13	151.0	NA
100	32	23	F	Question	46	4	NA	NA	1511.0	1
101	32	23	F	Filler	53	4	The	1	794.0	NA
101	32	23	F	Filler	53	4	clay	2	217.0	NA
101	32	23	F	Filler	53	4	pot	3	185.0	NA
101	32	23	F	Filler	53	4	was	4	150.0	NA
101	32	23	F	Filler	53	4	full	5	232.0	NA
101	32	23	F	Filler	53	4	of	6	101.0	NA
101	32	23	F	Filler	53	4	gold	7	83.0	NA
101	32	23	F	Filler	53	4	coins	8	484.0	NA
101	32	23	F	Filler	53	4	and	9	248.0	NA
101	32	23	F	Filler	53	4	the	10	117.0	NA
101	32	23	F	Filler	53	4	thief	11	116.0	NA
101	32	23	F	Filler	53	4	knew	12	100.0	NA
101	32	23	F	Filler	53	4	he	13	117.0	NA
101	32	23	F	Filler	53	4	had	14	134.0	NA
101	32	23	F	Filler	53	4	finally	15	88.0	NA
101	32	23	F	Filler	53	4	hit	16	182.0	NA
101	32	23	F	Filler	53	4	the	17	118.0	NA
101	32	23	F	Filler	53	4	jackpot.	18	134.0	NA
101	32	23	F	Question	53	4	NA	NA	1457.0	1
102	32	23	F	Filler	48	4	The	1	328.0	NA
102	32	23	F	Filler	48	4	police	2	134.0	NA
102	32	23	F	Filler	48	4	arrested	3	100.0	NA
102	32	23	F	Filler	48	4	the	4	182.0	NA
102	32	23	F	Filler	48	4	sister	5	137.0	NA
102	32	23	F	Filler	48	4	of	6	117.0	NA
102	32	23	F	Filler	48	4	the	7	134.0	NA
102	32	23	F	Filler	48	4	handyman	8	131.0	NA
102	32	23	F	Filler	48	4	after	9	102.0	NA
102	32	23	F	Filler	48	4	she	10	116.0	NA
102	32	23	F	Filler	48	4	recently	11	167.0	NA
102	32	23	F	Filler	48	4	gave	12	118.0	NA
102	32	23	F	Filler	48	4	birth	13	165.0	NA
102	32	23	F	Filler	48	4	to	14	149.0	NA
102	32	23	F	Filler	48	4	twins.	15	167.0	NA
102	32	23	F	Question	48	4	NA	NA	2010.0	1
103	32	23	F	Filler	121	6	The	1	345.0	NA
103	32	23	F	Filler	121	6	ecologist	2	153.0	NA
103	32	23	F	Filler	121	6	wondered	3	133.0	NA
103	32	23	F	Filler	121	6	which	4	149.0	NA
103	32	23	F	Filler	121	6	plants	5	133.0	NA
103	32	23	F	Filler	121	6	the	6	151.0	NA
103	32	23	F	Filler	121	6	scientist	7	149.0	NA
103	32	23	F	Filler	121	6	grew	8	200.0	NA
103	32	23	F	Filler	121	6	but	9	183.0	NA
103	32	23	F	Filler	121	6	didn't	10	101.0	NA
103	32	23	F	Filler	121	6	modify	11	249.0	NA
103	32	23	F	Filler	121	6	the	12	135.0	NA
103	32	23	F	Filler	121	6	seeds	13	201.0	NA
103	32	23	F	Filler	121	6	of	14	699.0	NA
103	32	23	F	Filler	121	6	in	15	67.0	NA
103	32	23	F	Filler	121	6	the	16	201.0	NA
103	32	23	F	Filler	121	6	lab.	17	250.0	NA
103	32	23	F	Question	121	6	NA	NA	1190.0	1
104	32	23	F	swets	10	2	The	1	278.0	NA
104	32	23	F	swets	10	2	uncle	2	116.0	NA
104	32	23	F	swets	10	2	of	3	118.0	NA
104	32	23	F	swets	10	2	the	4	116.0	NA
104	32	23	F	swets	10	2	nun	5	118.0	NA
104	32	23	F	swets	10	2	who	6	100.0	NA
104	32	23	F	swets	10	2	lost	7	183.0	NA
104	32	23	F	swets	10	2	herself	8	167.0	NA
104	32	23	F	swets	10	2	in	9	151.0	NA
104	32	23	F	swets	10	2	thought	10	133.0	NA
104	32	23	F	swets	10	2	was	11	148.0	NA
104	32	23	F	swets	10	2	disturbed	12	170.0	NA
104	32	23	F	swets	10	2	by	13	699.0	NA
104	32	23	F	swets	10	2	the	14	98.0	NA
104	32	23	F	swets	10	2	noise.	15	235.0	NA
104	32	23	F	Question	10	2	NA	NA	3113.0	1
105	32	23	F	Filler	54	4	The	1	460.0	NA
105	32	23	F	Filler	54	4	video	2	134.0	NA
105	32	23	F	Filler	54	4	screen	3	583.0	NA
105	32	23	F	Filler	54	4	of	4	137.0	NA
105	32	23	F	Filler	54	4	the	5	116.0	NA
105	32	23	F	Filler	54	4	monitor	6	452.0	NA
105	32	23	F	Filler	54	4	made	7	283.0	NA
105	32	23	F	Filler	54	4	strange	8	299.0	NA
105	32	23	F	Filler	54	4	noises	9	115.0	NA
105	32	23	F	Filler	54	4	and	10	100.0	NA
105	32	23	F	Filler	54	4	started	11	103.0	NA
105	32	23	F	Filler	54	4	emitting	12	115.0	NA
105	32	23	F	Filler	54	4	strange	13	135.0	NA
105	32	23	F	Filler	54	4	flashes.	14	148.0	NA
105	32	23	F	Question	54	4	NA	NA	1243.0	1
106	32	23	F	Filler	78	5	The	1	97.0	NA
106	32	23	F	Filler	78	5	customer	2	101.0	NA
106	32	23	F	Filler	78	5	complimented	3	365.0	NA
106	32	23	F	Filler	78	5	the	4	134.0	NA
106	32	23	F	Filler	78	5	store	5	134.0	NA
106	32	23	F	Filler	78	5	keeper	6	198.0	NA
106	32	23	F	Filler	78	5	with	7	133.0	NA
106	32	23	F	Filler	78	5	the	8	133.0	NA
106	32	23	F	Filler	78	5	new	9	167.0	NA
106	32	23	F	Filler	78	5	stock.	10	167.0	NA
106	32	23	F	Question	78	5	NA	NA	1093.0	1
107	32	23	F	Filler	109	6	While	1	495.0	NA
107	32	23	F	Filler	109	6	the	2	34.0	NA
107	32	23	F	Filler	109	6	farmer	3	99.0	NA
107	32	23	F	Filler	109	6	steered	4	101.0	NA
107	32	23	F	Filler	109	6	the	5	98.0	NA
107	32	23	F	Filler	109	6	truck	6	117.0	NA
107	32	23	F	Filler	109	6	the	7	101.0	NA
107	32	23	F	Filler	109	6	tractor	8	117.0	NA
107	32	23	F	Filler	109	6	pulled	9	133.0	NA
107	32	23	F	Filler	109	6	the	10	82.0	NA
107	32	23	F	Filler	109	6	plough.	11	134.0	NA
107	32	23	F	Question	109	6	NA	NA	2910.0	1
108	32	23	F	Filler	40	4	The	1	380.0	NA
108	32	23	F	Filler	40	4	boy's	2	100.0	NA
108	32	23	F	Filler	40	4	mother	3	34.0	NA
108	32	23	F	Filler	40	4	was	4	116.0	NA
108	32	23	F	Filler	40	4	very	5	100.0	NA
108	32	23	F	Filler	40	4	happy	6	99.0	NA
108	32	23	F	Filler	40	4	to	7	102.0	NA
108	32	23	F	Filler	40	4	see	8	97.0	NA
108	32	23	F	Filler	40	4	good	9	118.0	NA
108	32	23	F	Filler	40	4	grades	10	101.0	NA
108	32	23	F	Filler	40	4	on	11	70.0	NA
108	32	23	F	Filler	40	4	his	12	117.0	NA
108	32	23	F	Filler	40	4	report	13	83.0	NA
108	32	23	F	Filler	40	4	card.	14	383.0	NA
108	32	23	F	Question	40	4	NA	NA	1494.0	1
109	32	23	F	swets	19	2	The	1	429.0	NA
109	32	23	F	swets	19	2	mistress	2	68.0	NA
109	32	23	F	swets	19	2	of	3	98.0	NA
109	32	23	F	swets	19	2	the	4	71.0	NA
109	32	23	F	swets	19	2	actor	5	84.0	NA
109	32	23	F	swets	19	2	who	6	83.0	NA
109	32	23	F	swets	19	2	hated	7	82.0	NA
109	32	23	F	swets	19	2	himself	8	67.0	NA
109	32	23	F	swets	19	2	for	9	99.0	NA
109	32	23	F	swets	19	2	lying	10	100.0	NA
109	32	23	F	swets	19	2	left	11	68.0	NA
109	32	23	F	swets	19	2	town	12	100.0	NA
109	32	23	F	swets	19	2	in	13	68.0	NA
109	32	23	F	swets	19	2	a	14	132.0	NA
109	32	23	F	swets	19	2	hurry.	15	118.0	NA
109	32	23	F	Question	19	2	NA	NA	2057.0	0
110	32	23	F	Filler	41	4	While	1	346.0	NA
110	32	23	F	Filler	41	4	the	2	314.0	NA
110	32	23	F	Filler	41	4	babysitter	3	237.0	NA
110	32	23	F	Filler	41	4	watched	4	266.0	NA
110	32	23	F	Filler	41	4	soap	5	101.0	NA
110	32	23	F	Filler	41	4	operas	6	132.0	NA
110	32	23	F	Filler	41	4	the	7	68.0	NA
110	32	23	F	Filler	41	4	child	8	66.0	NA
110	32	23	F	Filler	41	4	poured	9	101.0	NA
110	32	23	F	Filler	41	4	honey	10	116.0	NA
110	32	23	F	Filler	41	4	all	11	115.0	NA
110	32	23	F	Filler	41	4	over	12	150.0	NA
110	32	23	F	Filler	41	4	the	13	117.0	NA
110	32	23	F	Filler	41	4	floor.	14	117.0	NA
110	32	23	F	Question	41	4	NA	NA	1827.0	1
111	32	23	F	Filler	47	4	The	1	362.0	NA
111	32	23	F	Filler	47	4	boys	2	117.0	NA
111	32	23	F	Filler	47	4	all	3	68.0	NA
111	32	23	F	Filler	47	4	admired	4	66.0	NA
111	32	23	F	Filler	47	4	the	5	83.0	NA
111	32	23	F	Filler	47	4	singer	6	102.0	NA
111	32	23	F	Filler	47	4	of	7	83.0	NA
111	32	23	F	Filler	47	4	the	8	132.0	NA
111	32	23	F	Filler	47	4	song	9	68.0	NA
111	32	23	F	Filler	47	4	with	10	135.0	NA
111	32	23	F	Filler	47	4	the	11	115.0	NA
111	32	23	F	Filler	47	4	long	12	119.0	NA
111	32	23	F	Filler	47	4	eyelashes.	13	134.0	NA
111	32	23	F	Question	47	4	NA	NA	854.0	1
112	32	23	F	Filler	101	5	The	1	2497.0	NA
112	32	23	F	Filler	101	5	friendly	2	152.0	NA
112	32	23	F	Filler	101	5	woman	3	65.0	NA
112	32	23	F	Filler	101	5	was	4	215.0	NA
112	32	23	F	Filler	101	5	insulted	5	103.0	NA
112	32	23	F	Filler	101	5	by	6	50.0	NA
112	32	23	F	Filler	101	5	the	7	131.0	NA
112	32	23	F	Filler	101	5	rude	8	135.0	NA
112	32	23	F	Filler	101	5	stranger	9	68.0	NA
112	32	23	F	Filler	101	5	because	10	98.0	NA
112	32	23	F	Filler	101	5	he	11	68.0	NA
112	32	23	F	Filler	101	5	didn't	12	101.0	NA
112	32	23	F	Filler	101	5	smile	13	114.0	NA
112	32	23	F	Filler	101	5	at	14	102.0	NA
112	32	23	F	Filler	101	5	her.	15	149.0	NA
112	32	23	F	Question	101	5	NA	NA	642.0	0
113	32	23	F	swets	21	1	The	1	396.0	NA
113	32	23	F	swets	21	1	son	2	100.0	NA
113	32	23	F	swets	21	1	of	3	114.0	NA
113	32	23	F	swets	21	1	the	4	103.0	NA
113	32	23	F	swets	21	1	janitor	5	99.0	NA
113	32	23	F	swets	21	1	who	6	99.0	NA
113	32	23	F	swets	21	1	educated	7	69.0	NA
113	32	23	F	swets	21	1	himself	8	80.0	NA
113	32	23	F	swets	21	1	at	9	83.0	NA
113	32	23	F	swets	21	1	night	10	135.0	NA
113	32	23	F	swets	21	1	loved	11	101.0	NA
113	32	23	F	swets	21	1	going	12	118.0	NA
113	32	23	F	swets	21	1	to	13	134.0	NA
113	32	23	F	swets	21	1	the	14	147.0	NA
113	32	23	F	swets	21	1	theatre.	15	119.0	NA
113	32	23	F	Question	21	1	NA	NA	1043.0	1
114	32	23	F	Filler	104	5	Despite	1	330.0	NA
114	32	23	F	Filler	104	5	the	2	100.0	NA
114	32	23	F	Filler	104	5	relative	3	132.0	NA
114	32	23	F	Filler	104	5	lack	4	100.0	NA
114	32	23	F	Filler	104	5	of	5	118.0	NA
114	32	23	F	Filler	104	5	rain	6	116.0	NA
114	32	23	F	Filler	104	5	the	7	115.0	NA
114	32	23	F	Filler	104	5	farmer	8	116.0	NA
114	32	23	F	Filler	104	5	harvested	9	153.0	NA
114	32	23	F	Filler	104	5	much	10	165.0	NA
114	32	23	F	Filler	104	5	wheat.	11	167.0	NA
114	32	23	F	Question	104	5	NA	NA	1096.0	0
115	32	23	F	Filler	77	5	Outside	1	297.0	NA
115	32	23	F	Filler	77	5	the	2	50.0	NA
115	32	23	F	Filler	77	5	courthouse	3	134.0	NA
115	32	23	F	Filler	77	5	the	4	115.0	NA
115	32	23	F	Filler	77	5	committee	5	132.0	NA
115	32	23	F	Filler	77	5	awarded	6	150.0	NA
115	32	23	F	Filler	77	5	a	7	102.0	NA
115	32	23	F	Filler	77	5	lifetime	8	417.0	NA
115	32	23	F	Filler	77	5	achievement	9	199.0	NA
115	32	23	F	Filler	77	5	prize	10	136.0	NA
115	32	23	F	Filler	77	5	to	11	134.0	NA
115	32	23	F	Filler	77	5	the	12	184.0	NA
115	32	23	F	Filler	77	5	creator	13	399.0	NA
115	32	23	F	Filler	77	5	of	14	182.0	NA
115	32	23	F	Filler	77	5	the	15	118.0	NA
115	32	23	F	Filler	77	5	sculpture.	16	168.0	NA
115	32	23	F	Question	77	5	NA	NA	423.0	1
116	32	23	F	Filler	111	6	While	1	379.0	NA
116	32	23	F	Filler	111	6	the	2	367.0	NA
116	32	23	F	Filler	111	6	clown	3	114.0	NA
116	32	23	F	Filler	111	6	juggled	4	36.0	NA
116	32	23	F	Filler	111	6	the	5	36.0	NA
116	32	23	F	Filler	111	6	balls	6	67.0	NA
116	32	23	F	Filler	111	6	fell	7	83.0	NA
116	32	23	F	Filler	111	6	to	8	100.0	NA
116	32	23	F	Filler	111	6	the	9	118.0	NA
116	32	23	F	Filler	111	6	ground.	10	200.0	NA
116	32	23	F	Question	111	6	NA	NA	823.0	1
117	32	23	F	Filler	38	4	Despite	1	464.0	NA
117	32	23	F	Filler	38	4	the	2	117.0	NA
117	32	23	F	Filler	38	4	lack	3	133.0	NA
117	32	23	F	Filler	38	4	of	4	148.0	NA
117	32	23	F	Filler	38	4	publicity	5	138.0	NA
117	32	23	F	Filler	38	4	many	6	147.0	NA
117	32	23	F	Filler	38	4	people	7	118.0	NA
117	32	23	F	Filler	38	4	attended	8	150.0	NA
117	32	23	F	Filler	38	4	the	9	199.0	NA
117	32	23	F	Filler	38	4	lecture.	10	200.0	NA
117	32	23	F	Question	38	4	NA	NA	729.0	1
118	32	23	F	Filler	99	5	The	1	1197.0	NA
118	32	23	F	Filler	99	5	daring	2	101.0	NA
118	32	23	F	Filler	99	5	photographer	3	67.0	NA
118	32	23	F	Filler	99	5	captured	4	167.0	NA
118	32	23	F	Filler	99	5	the	5	116.0	NA
118	32	23	F	Filler	99	5	image	6	167.0	NA
118	32	23	F	Filler	99	5	of	7	483.0	NA
118	32	23	F	Filler	99	5	the	8	152.0	NA
118	32	23	F	Filler	99	5	destruction	9	266.0	NA
118	32	23	F	Filler	99	5	as	10	485.0	NA
118	32	23	F	Filler	99	5	it	11	131.0	NA
118	32	23	F	Filler	99	5	devastated	12	734.0	NA
118	32	23	F	Filler	99	5	the	13	201.0	NA
118	32	23	F	Filler	99	5	village.	14	167.0	NA
118	32	23	F	Question	99	5	NA	NA	1176.0	0
119	32	23	F	Filler	93	5	The	1	1478.0	NA
119	32	23	F	Filler	93	5	new	2	132.0	NA
119	32	23	F	Filler	93	5	book	3	152.0	NA
119	32	23	F	Filler	93	5	replaced	4	102.0	NA
119	32	23	F	Filler	93	5	the	5	149.0	NA
119	32	23	F	Filler	93	5	work	6	115.0	NA
119	32	23	F	Filler	93	5	of	7	134.0	NA
119	32	23	F	Filler	93	5	the	8	152.0	NA
119	32	23	F	Filler	93	5	leaders	9	134.0	NA
119	32	23	F	Filler	93	5	in	10	133.0	NA
119	32	23	F	Filler	93	5	the	11	382.0	NA
119	32	23	F	Filler	93	5	field	12	116.0	NA
119	32	23	F	Filler	93	5	of	13	119.0	NA
119	32	23	F	Filler	93	5	physical	14	133.0	NA
119	32	23	F	Filler	93	5	chemistry.	15	133.0	NA
119	32	23	F	Question	93	5	NA	NA	810.0	0
120	32	23	F	Filler	83	5	The	1	929.0	NA
120	32	23	F	Filler	83	5	passengers	2	336.0	NA
120	32	23	F	Filler	83	5	screamed	3	99.0	NA
120	32	23	F	Filler	83	5	as	4	84.0	NA
120	32	23	F	Filler	83	5	the	5	166.0	NA
120	32	23	F	Filler	83	5	plane	6	119.0	NA
120	32	23	F	Filler	83	5	dipped	7	131.0	NA
120	32	23	F	Filler	83	5	and	8	66.0	NA
120	32	23	F	Filler	83	5	the	9	185.0	NA
120	32	23	F	Filler	83	5	pilots	10	133.0	NA
120	32	23	F	Filler	83	5	said	11	116.0	NA
120	32	23	F	Filler	83	5	their	12	119.0	NA
120	32	23	F	Filler	83	5	prayers	13	134.0	NA
120	32	23	F	Filler	83	5	quietly.	14	164.0	NA
120	32	23	F	Question	83	5	NA	NA	609.0	0
121	32	23	F	swets	16	2	The	1	928.0	NA
121	32	23	F	swets	16	2	widow	2	486.0	NA
121	32	23	F	swets	16	2	of	3	217.0	NA
121	32	23	F	swets	16	2	the	4	149.0	NA
121	32	23	F	swets	16	2	general	5	118.0	NA
121	32	23	F	swets	16	2	who	6	150.0	NA
121	32	23	F	swets	16	2	sacrificed	7	132.0	NA
121	32	23	F	swets	16	2	himself	8	117.0	NA
121	32	23	F	swets	16	2	for	9	119.0	NA
121	32	23	F	swets	16	2	the	10	133.0	NA
121	32	23	F	swets	16	2	cause	11	349.0	NA
121	32	23	F	swets	16	2	was	12	101.0	NA
121	32	23	F	swets	16	2	the	13	116.0	NA
121	32	23	F	swets	16	2	subject	14	117.0	NA
121	32	23	F	swets	16	2	of	15	116.0	NA
121	32	23	F	swets	16	2	the	16	101.0	NA
121	32	23	F	swets	16	2	biography.	17	135.0	NA
121	32	23	F	Question	16	2	NA	NA	458.0	1
122	32	23	F	Filler	138	7	While	1	295.0	NA
122	32	23	F	Filler	138	7	Pedro	2	68.0	NA
122	32	23	F	Filler	138	7	was	3	82.0	NA
122	32	23	F	Filler	138	7	swimming	4	83.0	NA
122	32	23	F	Filler	138	7	the	5	65.0	NA
122	32	23	F	Filler	138	7	lifeguard	6	267.0	NA
122	32	23	F	Filler	138	7	sat	7	35.0	NA
122	32	23	F	Filler	138	7	in	8	83.0	NA
122	32	23	F	Filler	138	7	his	9	83.0	NA
122	32	23	F	Filler	138	7	chair.	10	50.0	NA
122	32	23	F	Question	138	7	NA	NA	975.0	1
123	32	23	F	swets	31	2	The	1	264.0	NA
123	32	23	F	swets	31	2	aunt	2	100.0	NA
123	32	23	F	swets	31	2	of	3	80.0	NA
123	32	23	F	swets	31	2	the	4	53.0	NA
123	32	23	F	swets	31	2	milkman	5	415.0	NA
123	32	23	F	swets	31	2	who	6	82.0	NA
123	32	23	F	swets	31	2	had	7	101.0	NA
123	32	23	F	swets	31	2	to	8	116.0	NA
123	32	23	F	swets	31	2	support	9	69.0	NA
123	32	23	F	swets	31	2	himself	10	99.0	NA
123	32	23	F	swets	31	2	with	11	84.0	NA
123	32	23	F	swets	31	2	a	12	83.0	NA
123	32	23	F	swets	31	2	low	13	117.0	NA
123	32	23	F	swets	31	2	income	14	116.0	NA
123	32	23	F	swets	31	2	liked	15	133.0	NA
123	32	23	F	swets	31	2	to	16	51.0	NA
123	32	23	F	swets	31	2	fish.	17	182.0	NA
123	32	23	F	Question	31	2	NA	NA	1443.0	0
124	32	23	F	Filler	114	6	While	1	279.0	NA
124	32	23	F	Filler	114	6	the	2	133.0	NA
124	32	23	F	Filler	114	6	winners	3	99.0	NA
124	32	23	F	Filler	114	6	were	4	134.0	NA
124	32	23	F	Filler	114	6	kissing	5	119.0	NA
124	32	23	F	Filler	114	6	the	6	100.0	NA
124	32	23	F	Filler	114	6	crowd	7	132.0	NA
124	32	23	F	Filler	114	6	cheered	8	166.0	NA
124	32	23	F	Filler	114	6	wildly.	9	151.0	NA
124	32	23	F	Question	114	6	NA	NA	1894.0	1
125	32	23	F	swets	28	2	The	1	363.0	NA
125	32	23	F	swets	28	2	nephew	2	100.0	NA
125	32	23	F	swets	28	2	of	3	133.0	NA
125	32	23	F	swets	28	2	the	4	116.0	NA
125	32	23	F	swets	28	2	baroness	5	166.0	NA
125	32	23	F	swets	28	2	who	6	99.0	NA
125	32	23	F	swets	28	2	admired	7	102.0	NA
125	32	23	F	swets	28	2	herself	8	152.0	NA
125	32	23	F	swets	28	2	an	9	167.0	NA
125	32	23	F	swets	28	2	inordinate	10	148.0	NA
125	32	23	F	swets	28	2	amount	11	219.0	NA
125	32	23	F	swets	28	2	enjoyed	12	331.0	NA
125	32	23	F	swets	28	2	all	13	301.0	NA
125	32	23	F	swets	28	2	the	14	82.0	NA
125	32	23	F	swets	28	2	attention.	15	268.0	NA
125	32	23	F	Question	28	2	NA	NA	1760.0	0
126	32	23	F	Filler	134	7	As	1	2763.0	NA
126	32	23	F	Filler	134	7	Shawnie	2	215.0	NA
126	32	23	F	Filler	134	7	and	3	301.0	NA
126	32	23	F	Filler	134	7	Nick	4	1135.0	NA
126	32	23	F	Filler	134	7	were	5	68.0	NA
126	32	23	F	Filler	134	7	embracing	6	100.0	NA
126	32	23	F	Filler	134	7	the	7	199.0	NA
126	32	23	F	Filler	134	7	doctor	8	84.0	NA
126	32	23	F	Filler	134	7	the	9	132.0	NA
126	32	23	F	Filler	134	7	visitor	10	84.0	NA
126	32	23	F	Filler	134	7	entered	11	117.0	NA
126	32	23	F	Filler	134	7	the	12	132.0	NA
126	32	23	F	Filler	134	7	room.	13	134.0	NA
126	32	23	F	Question	134	7	NA	NA	410.0	0
127	32	23	F	Filler	106	5	On	1	831.0	NA
127	32	23	F	Filler	106	5	the	2	150.0	NA
127	32	23	F	Filler	106	5	last	3	167.0	NA
127	32	23	F	Filler	106	5	night	4	134.0	NA
127	32	23	F	Filler	106	5	of	5	148.0	NA
127	32	23	F	Filler	106	5	summer	6	120.0	NA
127	32	23	F	Filler	106	5	camp	7	132.0	NA
127	32	23	F	Filler	106	5	the	8	85.0	NA
127	32	23	F	Filler	106	5	counselors	9	166.0	NA
127	32	23	F	Filler	106	5	let	10	115.0	NA
127	32	23	F	Filler	106	5	the	11	185.0	NA
127	32	23	F	Filler	106	5	children	12	202.0	NA
127	32	23	F	Filler	106	5	stay	13	130.0	NA
127	32	23	F	Filler	106	5	up	14	367.0	NA
127	32	23	F	Filler	106	5	until	15	116.0	NA
127	32	23	F	Filler	106	5	midnight.	16	203.0	NA
127	32	23	F	Question	106	5	NA	NA	1741.0	1
128	32	23	F	Filler	132	7	While	1	1296.0	NA
128	32	23	F	Filler	132	7	John	2	133.0	NA
128	32	23	F	Filler	132	7	and	3	68.0	NA
128	32	23	F	Filler	132	7	Mary	4	132.0	NA
128	32	23	F	Filler	132	7	kissed	5	350.0	NA
128	32	23	F	Filler	132	7	their	6	237.0	NA
128	32	23	F	Filler	132	7	daughter	7	865.0	NA
128	32	23	F	Filler	132	7	fell	8	416.0	NA
128	32	23	F	Filler	132	7	asleep.	9	184.0	NA
128	32	23	F	Question	132	7	NA	NA	895.0	0
129	32	23	F	Filler	86	5	The	1	328.0	NA
129	32	23	F	Filler	86	5	family's	2	122.0	NA
129	32	23	F	Filler	86	5	television	3	97.0	NA
129	32	23	F	Filler	86	5	stopped	4	69.0	NA
129	32	23	F	Filler	86	5	working	5	67.0	NA
129	32	23	F	Filler	86	5	two	6	81.0	NA
129	32	23	F	Filler	86	5	days	7	100.0	NA
129	32	23	F	Filler	86	5	after	8	65.0	NA
129	32	23	F	Filler	86	5	the	9	69.0	NA
129	32	23	F	Filler	86	5	warranty	10	68.0	NA
129	32	23	F	Filler	86	5	expired.	11	200.0	NA
129	32	23	F	Question	86	5	NA	NA	643.0	1
130	32	23	F	Filler	79	5	Although	1	365.0	NA
130	32	23	F	Filler	79	5	the	2	95.0	NA
130	32	23	F	Filler	79	5	mechanic	3	101.0	NA
130	32	23	F	Filler	79	5	said	4	104.0	NA
130	32	23	F	Filler	79	5	the	5	65.0	NA
130	32	23	F	Filler	79	5	job	6	167.0	NA
130	32	23	F	Filler	79	5	would	7	118.0	NA
130	32	23	F	Filler	79	5	take	8	199.0	NA
130	32	23	F	Filler	79	5	four	9	117.0	NA
130	32	23	F	Filler	79	5	days	10	186.0	NA
130	32	23	F	Filler	79	5	the	11	133.0	NA
130	32	23	F	Filler	79	5	client	12	114.0	NA
130	32	23	F	Filler	79	5	didn't	13	218.0	NA
130	32	23	F	Filler	79	5	receive	14	168.0	NA
130	32	23	F	Filler	79	5	her	15	147.0	NA
130	32	23	F	Filler	79	5	car	16	103.0	NA
130	32	23	F	Filler	79	5	for	17	216.0	NA
130	32	23	F	Filler	79	5	six	18	33.0	NA
130	32	23	F	Filler	79	5	weeks.	19	102.0	NA
130	32	23	F	Question	79	5	NA	NA	539.0	0
131	32	23	F	swets	30	1	The	1	1260.0	NA
131	32	23	F	swets	30	1	maid	2	84.0	NA
131	32	23	F	swets	30	1	of	3	166.0	NA
131	32	23	F	swets	30	1	the	4	1803.0	NA
131	32	23	F	swets	30	1	baroness	5	99.0	NA
131	32	23	F	swets	30	1	who	6	51.0	NA
131	32	23	F	swets	30	1	prepared	7	67.0	NA
131	32	23	F	swets	30	1	herself	8	49.0	NA
131	32	23	F	swets	30	1	very	9	67.0	NA
131	32	23	F	swets	30	1	thoroughly	10	67.0	NA
131	32	23	F	swets	30	1	came	11	51.0	NA
131	32	23	F	swets	30	1	from	12	68.0	NA
131	32	23	F	swets	30	1	the	13	100.0	NA
131	32	23	F	swets	30	1	south.	14	66.0	NA
131	32	23	F	Question	30	1	NA	NA	457.0	0
132	32	23	F	Filler	95	5	The	1	313.0	NA
132	32	23	F	Filler	95	5	receptionist	2	402.0	NA
132	32	23	F	Filler	95	5	of	3	248.0	NA
132	32	23	F	Filler	95	5	the	4	251.0	NA
132	32	23	F	Filler	95	5	company	5	269.0	NA
132	32	23	F	Filler	95	5	went	6	229.0	NA
132	32	23	F	Filler	95	5	home	7	87.0	NA
132	32	23	F	Filler	95	5	sick	8	116.0	NA
132	32	23	F	Filler	95	5	before	9	34.0	NA
132	32	23	F	Filler	95	5	moving	10	167.0	NA
132	32	23	F	Filler	95	5	across	11	398.0	NA
132	32	23	F	Filler	95	5	town.	12	302.0	NA
132	32	23	F	Question	95	5	NA	NA	1605.0	0
133	32	23	F	Filler	45	4	The	1	345.0	NA
133	32	23	F	Filler	45	4	plumber	2	333.0	NA
133	32	23	F	Filler	45	4	repaired	3	35.0	NA
133	32	23	F	Filler	45	4	the	4	114.0	NA
133	32	23	F	Filler	45	4	sink	5	101.0	NA
133	32	23	F	Filler	45	4	of	6	115.0	NA
133	32	23	F	Filler	45	4	the	7	152.0	NA
133	32	23	F	Filler	45	4	tenant	8	133.0	NA
133	32	23	F	Filler	45	4	because	9	68.0	NA
133	32	23	F	Filler	45	4	he	10	150.0	NA
133	32	23	F	Filler	45	4	had	11	165.0	NA
133	32	23	F	Filler	45	4	just	12	100.0	NA
133	32	23	F	Filler	45	4	moved	13	150.0	NA
133	32	23	F	Filler	45	4	in.	14	117.0	NA
133	32	23	F	Question	45	4	NA	NA	441.0	0
134	32	23	F	Filler	73	5	My	1	110.0	NA
134	32	23	F	Filler	73	5	cousins	2	651.0	NA
134	32	23	F	Filler	73	5	admired	3	67.0	NA
134	32	23	F	Filler	73	5	the	4	85.0	NA
134	32	23	F	Filler	73	5	singer	5	99.0	NA
134	32	23	F	Filler	73	5	although	6	101.0	NA
134	32	23	F	Filler	73	5	she	7	100.0	NA
134	32	23	F	Filler	73	5	never	8	115.0	NA
134	32	23	F	Filler	73	5	became	9	100.0	NA
134	32	23	F	Filler	73	5	popular.	10	103.0	NA
134	32	23	F	Question	73	5	NA	NA	2460.0	1
135	32	23	F	Filler	82	5	The	1	330.0	NA
135	32	23	F	Filler	82	5	patient's	2	2702.0	NA
135	32	23	F	Filler	82	5	seizures	3	232.0	NA
135	32	23	F	Filler	82	5	appeared	4	67.0	NA
135	32	23	F	Filler	82	5	to	5	132.0	NA
135	32	23	F	Filler	82	5	have	6	19.0	NA
135	32	23	F	Filler	82	5	been	7	200.0	NA
135	32	23	F	Filler	82	5	eliminated	8	49.0	NA
135	32	23	F	Filler	82	5	by	9	17.0	NA
135	32	23	F	Filler	82	5	the	10	67.0	NA
135	32	23	F	Filler	82	5	surgery.	11	33.0	NA
135	32	23	F	Question	82	5	NA	NA	492.0	1
136	32	23	F	Filler	127	7	While	1	396.0	NA
136	32	23	F	Filler	127	7	Linda	2	136.0	NA
136	32	23	F	Filler	127	7	wrote	3	148.0	NA
136	32	23	F	Filler	127	7	the	4	200.0	NA
136	32	23	F	Filler	127	7	letter	5	217.0	NA
136	32	23	F	Filler	127	7	arrived	6	302.0	NA
136	32	23	F	Filler	127	7	from	7	200.0	NA
136	32	23	F	Filler	127	7	Chicago.	8	200.0	NA
136	32	23	F	Question	127	7	NA	NA	925.0	0
137	32	23	F	Filler	58	4	The	1	329.0	NA
137	32	23	F	Filler	58	4	white	2	102.0	NA
137	32	23	F	Filler	58	4	dog	3	149.0	NA
137	32	23	F	Filler	58	4	bit	4	151.0	NA
137	32	23	F	Filler	58	4	the	5	84.0	NA
137	32	23	F	Filler	58	4	ankle	6	168.0	NA
137	32	23	F	Filler	58	4	of	7	264.0	NA
137	32	23	F	Filler	58	4	the	8	386.0	NA
137	32	23	F	Filler	58	4	child.	9	149.0	NA
137	32	23	F	Question	58	4	NA	NA	1510.0	1
138	32	23	F	Filler	141	7	The	1	327.0	NA
138	32	23	F	Filler	141	7	nurse	2	53.0	NA
138	32	23	F	Filler	141	7	and	3	116.0	NA
138	32	23	F	Filler	141	7	custodian	4	134.0	NA
138	32	23	F	Filler	141	7	chatted	5	99.0	NA
138	32	23	F	Filler	141	7	during	6	100.0	NA
138	32	23	F	Filler	141	7	their	7	82.0	NA
138	32	23	F	Filler	141	7	break.	8	116.0	NA
138	32	23	F	Question	141	7	NA	NA	1543.0	1
139	32	23	F	swets	26	3	The	1	280.0	NA
139	32	23	F	swets	26	3	grand-niece	2	134.0	NA
139	32	23	F	swets	26	3	of	3	164.0	NA
139	32	23	F	swets	26	3	the	4	184.0	NA
139	32	23	F	swets	26	3	admiral	5	99.0	NA
139	32	23	F	swets	26	3	who	6	86.0	NA
139	32	23	F	swets	26	3	wrote	7	80.0	NA
139	32	23	F	swets	26	3	herself	8	134.0	NA
139	32	23	F	swets	26	3	a	9	185.0	NA
139	32	23	F	swets	26	3	note	10	151.0	NA
139	32	23	F	swets	26	3	admired	11	133.0	NA
139	32	23	F	swets	26	3	sailors	12	100.0	NA
139	32	23	F	swets	26	3	very	13	181.0	NA
139	32	23	F	swets	26	3	much.	14	736.0	NA
139	32	23	F	Question	26	3	NA	NA	1861.0	1
140	32	23	F	Filler	42	4	After	1	245.0	NA
140	32	23	F	Filler	42	4	dinner	2	34.0	NA
140	32	23	F	Filler	42	4	the	3	150.0	NA
140	32	23	F	Filler	42	4	children	4	98.0	NA
140	32	23	F	Filler	42	4	gathered	5	51.0	NA
140	32	23	F	Filler	42	4	in	6	68.0	NA
140	32	23	F	Filler	42	4	a	7	134.0	NA
140	32	23	F	Filler	42	4	circle	8	98.0	NA
140	32	23	F	Filler	42	4	to	9	102.0	NA
140	32	23	F	Filler	42	4	listen	10	83.0	NA
140	32	23	F	Filler	42	4	to	11	83.0	NA
140	32	23	F	Filler	42	4	their	12	100.0	NA
140	32	23	F	Filler	42	4	grandmother's	13	103.0	NA
140	32	23	F	Filler	42	4	stories	14	99.0	NA
140	32	23	F	Filler	42	4	about	15	103.0	NA
140	32	23	F	Filler	42	4	the	16	83.0	NA
140	32	23	F	Filler	42	4	good	17	165.0	NA
140	32	23	F	Filler	42	4	old	18	118.0	NA
140	32	23	F	Filler	42	4	days.	19	99.0	NA
140	32	23	F	Question	42	4	NA	NA	991.0	1
141	32	23	F	Filler	131	7	While	1	279.0	NA
141	32	23	F	Filler	131	7	Jamie	2	67.0	NA
141	32	23	F	Filler	131	7	dried	3	51.0	NA
141	32	23	F	Filler	131	7	off	4	50.0	NA
141	32	23	F	Filler	131	7	the	5	49.0	NA
141	32	23	F	Filler	131	7	table	6	66.0	NA
141	32	23	F	Filler	131	7	his	7	117.0	NA
141	32	23	F	Filler	131	7	sunglasses	8	302.0	NA
141	32	23	F	Filler	131	7	disappeared.	9	67.0	NA
141	32	23	F	Question	131	7	NA	NA	490.0	1
142	32	23	F	Filler	60	4	The	1	247.0	NA
142	32	23	F	Filler	60	4	newlyweds	2	131.0	NA
142	32	23	F	Filler	60	4	were	3	35.0	NA
142	32	23	F	Filler	60	4	nervous	4	101.0	NA
142	32	23	F	Filler	60	4	about	5	134.0	NA
142	32	23	F	Filler	60	4	their	6	181.0	NA
142	32	23	F	Filler	60	4	new	7	85.0	NA
142	32	23	F	Filler	60	4	life	8	85.0	NA
142	32	23	F	Filler	60	4	together.	9	132.0	NA
142	32	23	F	Question	60	4	NA	NA	1024.0	1
143	32	23	F	Filler	75	5	The	1	147.0	NA
143	32	23	F	Filler	75	5	musician	2	165.0	NA
143	32	23	F	Filler	75	5	shocked	3	135.0	NA
143	32	23	F	Filler	75	5	the	4	99.0	NA
143	32	23	F	Filler	75	5	audience	5	101.0	NA
143	32	23	F	Filler	75	5	because	6	132.0	NA
143	32	23	F	Filler	75	5	they	7	85.0	NA
143	32	23	F	Filler	75	5	did	8	101.0	NA
143	32	23	F	Filler	75	5	not	9	98.0	NA
143	32	23	F	Filler	75	5	realize	10	102.0	NA
143	32	23	F	Filler	75	5	what	11	65.0	NA
143	32	23	F	Filler	75	5	these	12	118.0	NA
143	32	23	F	Filler	75	5	shows	13	98.0	NA
143	32	23	F	Filler	75	5	were	14	86.0	NA
143	32	23	F	Filler	75	5	like.	15	98.0	NA
143	32	23	F	Question	75	5	NA	NA	1092.0	0
